"","Participant","Voice","Condition","StimulusType","Word","Accuracy","RT","PrevRT","Trial_50","Trial_300"
"1",601,"US","Music","Nonword","prothy",1,1081,994,1,1
"2",601,"US","Music","Nonword","mozing",0,1414,1081,2,2
"3",601,"US","Music","Word","often",1,934,1414,3,3
"4",601,"US","Music","Word","harden",1,859,934,4,4
"5",601,"US","Music","Word","quarry",1,982,859,5,5
"6",601,"US","Music","Nonword","varling",1,1036,982,6,6
"7",601,"US","Music","Nonword","stasking",1,1118,1036,7,7
"8",601,"US","Music","Word","cornet",0,989,1118,8,8
"9",601,"US","Music","Nonword","poven",1,1196,989,9,9
"10",601,"US","Music","Nonword","safting",1,1630,1196,10,10
"11",601,"US","Music","Word","coping",1,783,1630,11,11
"12",601,"US","Music","Word","roading",0,1505,783,12,12
"13",601,"US","Music","Word","blasting",1,901,1505,13,13
"14",601,"US","Music","Word","yearning",1,929,901,14,14
"15",601,"US","Music","Nonword","spoaming",1,1081,929,15,15
"16",601,"US","Music","Nonword","choathy",1,1113,1081,16,16
"17",601,"US","Music","Nonword","modging",1,1135,1113,17,17
"18",601,"US","Music","Nonword","hargy",1,1139,1135,18,18
"19",601,"US","Music","Word","pardon",1,818,1139,19,19
"20",601,"US","Music","Word","hosting",1,823,818,20,20
"21",601,"US","Music","Word","garnet",0,1156,823,21,21
"22",601,"US","Music","Nonword","broaming",1,1027,1156,22,22
"23",601,"US","Music","Word","casting",1,855,1027,23,23
"24",601,"US","Music","Word","classes",1,988,855,24,24
"25",601,"US","Music","Word","planting",1,790,988,25,25
"26",601,"US","Music","Word","posted",1,973,790,26,26
"27",601,"US","Music","Word","rotten",1,915,973,27,27
"28",601,"US","Music","Nonword","glarshest",1,950,915,28,28
"29",601,"US","Music","Nonword","groledge",1,1006,950,29,29
"30",601,"US","Music","Word","early",1,873,1006,30,30
"31",601,"US","Music","Word","mortal",1,1006,873,31,31
"32",601,"US","Music","Nonword","soating",1,1017,1006,32,32
"33",601,"US","Music","Word","soapy",1,887,1017,33,33
"34",601,"US","Music","Nonword","prasses",1,938,887,34,34
"35",601,"US","Music","Word","spoken",1,892,938,35,35
"36",601,"US","Music","Word","noted",1,865,892,36,36
"37",601,"US","Music","Nonword","splaffing",1,857,865,37,37
"38",601,"US","Music","Nonword","pasking",1,911,857,38,38
"39",601,"US","Music","Word","frozen",1,820,911,39,39
"40",601,"US","Music","Word","woken",1,1005,820,40,40
"41",601,"US","Music","Word","sporty",1,869,1005,41,41
"42",601,"US","Music","Nonword","eargy",1,902,869,42,42
"43",601,"US","Music","Nonword","plorset",1,737,902,43,43
"44",601,"US","Music","Nonword","stanches",1,919,737,44,44
"45",601,"US","Music","Nonword","swoded",1,919,919,45,45
"46",601,"US","Music","Word","loaded",1,640,919,46,46
"47",601,"US","Music","Nonword","florcen",1,809,640,47,47
"48",601,"US","Music","Nonword","troaky",1,1087,809,48,48
"49",601,"US","Music","Nonword","sorpoise",1,789,1087,49,49
"50",601,"US","Music","Nonword","purnel",1,739,789,50,50
"51",601,"US","Noise","Nonword","zarchet",1,851,994,1,51
"52",601,"US","Noise","Word","granted",1,906,851,2,52
"53",601,"US","Noise","Nonword","pranted",1,903,906,3,53
"54",601,"US","Noise","Nonword","gronest",1,1007,903,4,54
"55",601,"US","Noise","Word","sample",1,921,1007,5,55
"56",601,"US","Noise","Word","carving",1,927,921,6,56
"57",601,"US","Noise","Nonword","foting",0,939,927,7,57
"58",601,"US","Noise","Nonword","dorty",1,857,939,8,58
"59",601,"US","Noise","Word","shorten",1,934,857,9,59
"60",601,"US","Noise","Nonword","gloffle",1,846,934,10,60
"61",601,"US","Noise","Word","partial",1,1084,846,11,61
"62",601,"US","Noise","Nonword","blanting",1,909,1084,12,62
"63",601,"US","Noise","Nonword","twokker",1,962,909,13,63
"64",601,"US","Noise","Nonword","smoated",1,938,962,14,64
"65",601,"US","Noise","Nonword","soffice",1,1131,938,15,65
"66",601,"US","Noise","Nonword","zancing",1,913,1131,16,66
"67",601,"US","Noise","Nonword","barvet",1,925,913,17,67
"68",601,"US","Noise","Word","dirty",1,652,925,18,68
"69",601,"US","Noise","Word","earthly",1,964,652,19,69
"70",601,"US","Noise","Word","asking",1,789,964,20,70
"71",601,"US","Noise","Word","chanting",0,847,789,21,71
"72",601,"US","Noise","Nonword","twoppy",1,864,847,22,72
"73",601,"US","Noise","Word","flirty",0,1033,864,23,73
"74",601,"US","Noise","Nonword","dronchel",1,1056,1033,24,74
"75",601,"US","Noise","Nonword","sersect",1,1027,1056,25,75
"76",601,"US","Noise","Nonword","frozzy",1,932,1027,26,76
"77",601,"US","Noise","Nonword","talving",1,1035,932,27,77
"78",601,"US","Noise","Nonword","furden",1,994,1035,28,78
"79",601,"US","Noise","Word","porpoise",0,832,994,29,79
"80",601,"US","Noise","Word","casket",1,1013,832,30,80
"81",601,"US","Noise","Word","warden",0,1111,1013,31,81
"82",601,"US","Noise","Word","longing",1,815,1111,32,82
"83",601,"US","Noise","Nonword","dassing",1,1020,815,33,83
"84",601,"US","Noise","Word","branches",1,957,1020,34,84
"85",601,"US","Noise","Nonword","dastness",1,937,957,35,85
"86",601,"US","Noise","Word","doting",0,1151,937,36,86
"87",601,"US","Noise","Word","normal",1,836,1151,37,87
"88",601,"US","Noise","Nonword","shoated",1,980,836,38,88
"89",601,"US","Noise","Word","arming",1,958,980,39,89
"90",601,"US","Noise","Word","certain",1,870,958,40,90
"91",601,"US","Noise","Nonword","sasten",0,1279,870,41,91
"92",601,"US","Noise","Word","notches",0,1029,1279,42,92
"93",601,"US","Noise","Nonword","varpon",1,965,1029,43,93
"94",601,"US","Noise","Word","largest",0,955,965,44,94
"95",601,"US","Noise","Word","laughing",1,788,955,45,95
"96",601,"US","Noise","Word","hoarding",1,989,788,46,96
"97",601,"US","Noise","Word","journey",1,925,989,47,97
"98",601,"US","Noise","Nonword","morbing",1,1100,925,48,98
"99",601,"US","Noise","Nonword","zearning",1,919,1100,49,99
"100",601,"US","Noise","Word","token",1,1088,919,50,100
"101",601,"US","Silence","Nonword","zarmest",1,921,994,1,101
"102",601,"US","Silence","Word","portal",1,973,921,2,102
"103",601,"US","Silence","Nonword","vertain",1,997,973,3,103
"104",601,"US","Silence","Word","orbit",1,968,997,4,104
"105",601,"US","Silence","Nonword","chormel",1,878,968,5,105
"106",601,"US","Silence","Nonword","smophy",1,949,878,6,106
"107",601,"US","Silence","Word","portrait",1,1025,949,7,107
"108",601,"US","Silence","Nonword","zosses",1,987,1025,8,108
"109",601,"US","Silence","Word","lancet",0,985,987,9,109
"110",601,"US","Silence","Word","morning",1,828,985,10,110
"111",601,"US","Silence","Word","sausage",1,1033,828,11,111
"112",601,"US","Silence","Nonword","dasping",1,879,1033,12,112
"113",601,"US","Silence","Word","perfect",1,711,879,13,113
"114",601,"US","Silence","Word","poaching",1,866,711,14,114
"115",601,"US","Silence","Word","soaking",1,850,866,15,115
"116",601,"US","Silence","Nonword","narshing",1,937,850,16,116
"117",601,"US","Silence","Word","shafting",1,784,937,17,117
"118",601,"US","Silence","Word","coffin",0,961,784,18,118
"119",601,"US","Silence","Word","coffee",1,896,961,19,119
"120",601,"US","Silence","Nonword","sprollen",1,1049,896,20,120
"121",601,"US","Silence","Word","foster",0,1606,1049,21,121
"122",601,"US","Silence","Nonword","tharving",1,952,1606,22,122
"123",601,"US","Silence","Nonword","lorcet",1,974,952,23,123
"124",601,"US","Silence","Word","thorny",1,904,974,24,124
"125",601,"US","Silence","Nonword","gasking",1,1202,904,25,125
"126",601,"US","Silence","Word","staffing",0,1224,1202,26,126
"127",601,"US","Silence","Word","broken",1,696,1224,27,127
"128",601,"US","Silence","Nonword","vording",1,933,696,28,128
"129",601,"US","Silence","Nonword","furning",1,1147,933,29,129
"130",601,"US","Silence","Word","formal",1,931,1147,30,130
"131",601,"US","Silence","Nonword","hoaken",1,912,931,31,131
"132",601,"US","Silence","Nonword","chodded",1,1160,912,32,132
"133",601,"US","Silence","Word","knowledge",1,871,1160,33,133
"134",601,"US","Silence","Nonword","parshing",1,859,871,34,134
"135",601,"US","Silence","Word","farming",1,844,859,35,135
"136",601,"US","Silence","Nonword","bozes",1,867,844,36,136
"137",601,"US","Silence","Word","woven",1,701,867,37,137
"138",601,"US","Silence","Nonword","ormet",1,897,701,38,138
"139",601,"US","Silence","Word","hornet",1,823,897,39,139
"140",601,"US","Silence","Word","hoping",1,793,823,40,140
"141",601,"US","Silence","Word","offer",1,1028,793,41,141
"142",601,"US","Silence","Word","costly",1,968,1028,42,142
"143",601,"US","Silence","Nonword","garning",1,892,968,43,143
"144",601,"US","Silence","Nonword","gorrow",1,990,892,44,144
"145",601,"US","Silence","Nonword","tarma",1,811,990,45,145
"146",601,"US","Silence","Nonword","plasses",1,1177,811,46,146
"147",601,"US","Silence","Word","sorrow",0,937,1177,47,147
"148",601,"US","Silence","Nonword","wothing",1,922,937,48,148
"149",601,"US","Silence","Nonword","zoting",1,938,922,49,149
"150",601,"US","Silence","Nonword","mernel",1,1034,938,50,150
"151",601,"NZ","Music","Word","squabble",0,1062,994,1,151
"152",601,"NZ","Music","Nonword","masty",1,1064,1062,2,152
"153",601,"NZ","Music","Word","journal",1,892,1064,3,153
"154",601,"NZ","Music","Nonword","shormet",1,972,892,4,154
"155",601,"NZ","Music","Word","karma",1,789,972,5,155
"156",601,"NZ","Music","Nonword","yormal",1,955,789,6,156
"157",601,"NZ","Music","Nonword","eardest",0,1184,955,7,157
"158",601,"NZ","Music","Word","grasping",1,911,1184,8,158
"159",601,"NZ","Music","Nonword","banches",1,999,911,9,159
"160",601,"NZ","Music","Word","clasping",0,1162,999,10,160
"161",601,"NZ","Music","Nonword","korty",1,1020,1162,11,161
"162",601,"NZ","Music","Word","charming",1,766,1020,12,162
"163",601,"NZ","Music","Nonword","kirty",1,1034,766,13,163
"164",601,"NZ","Music","Word","glasses",1,773,1034,14,164
"165",601,"NZ","Music","Word","worsen",1,826,773,15,165
"166",601,"NZ","Music","Nonword","yoster",1,814,826,16,166
"167",601,"NZ","Music","Nonword","saffing",1,919,814,17,167
"168",601,"NZ","Music","Word","boating",1,832,919,18,168
"169",601,"NZ","Music","Word","corpus",0,976,832,19,169
"170",601,"NZ","Music","Nonword","hasket",1,1420,976,20,170
"171",601,"NZ","Music","Nonword","donely",1,895,1420,21,171
"172",601,"NZ","Music","Word","gasping",1,1000,895,22,172
"173",601,"NZ","Music","Word","passing",1,767,1000,23,173
"174",601,"NZ","Music","Nonword","chodges",1,829,767,24,174
"175",601,"NZ","Music","Nonword","frobing",0,952,829,25,175
"176",601,"NZ","Music","Word","basket",1,896,952,26,176
"177",601,"NZ","Music","Nonword","obbin",0,1039,896,27,177
"178",601,"NZ","Music","Nonword","snurchen",1,1027,1039,28,178
"179",601,"NZ","Music","Word","harpist",0,1414,1027,29,179
"180",601,"NZ","Music","Word","clothing",1,766,1414,30,180
"181",601,"NZ","Music","Nonword","fodding",1,970,766,31,181
"182",601,"NZ","Music","Word","brothel",1,1043,970,32,182
"183",601,"NZ","Music","Nonword","fample",1,927,1043,33,183
"184",601,"NZ","Music","Word","hearty",1,802,927,34,184
"185",601,"NZ","Music","Word","prodded",1,972,802,35,185
"186",601,"NZ","Music","Word","crafting",1,822,972,36,186
"187",601,"NZ","Music","Nonword","chorget",1,909,822,37,187
"188",601,"NZ","Music","Word","earnest",0,1272,909,38,188
"189",601,"NZ","Music","Nonword","plancis",1,994,1272,39,189
"190",601,"NZ","Music","Word","garden",1,833,994,40,190
"191",601,"NZ","Music","Nonword","snarfen",1,916,833,41,191
"192",601,"NZ","Music","Word","stances",1,933,916,42,192
"193",601,"NZ","Music","Nonword","thoving",1,909,933,43,193
"194",601,"NZ","Music","Nonword","blerking",1,909,909,44,194
"195",601,"NZ","Music","Word","trophy",1,762,909,45,195
"196",601,"NZ","Music","Nonword","vorden",1,878,762,46,196
"197",601,"NZ","Music","Nonword","koble",1,869,878,47,197
"198",601,"NZ","Music","Word","sharpen",1,896,869,48,198
"199",601,"NZ","Music","Nonword","clarny",1,847,896,49,199
"200",601,"NZ","Music","Word","slanted",1,853,847,50,200
"201",601,"NZ","Noise","Nonword","swonches",1,1054,994,1,201
"202",601,"NZ","Noise","Nonword","zotted",1,914,1054,2,202
"203",601,"NZ","Noise","Nonword","morgeous",1,896,914,3,203
"204",601,"NZ","Noise","Nonword","fosted",0,937,896,4,204
"205",601,"NZ","Noise","Word","kernel",1,867,937,5,205
"206",601,"NZ","Noise","Nonword","flonger",0,921,867,6,206
"207",601,"NZ","Noise","Word","stronger",1,735,921,7,207
"208",601,"NZ","Noise","Nonword","groating",1,860,735,8,208
"209",601,"NZ","Noise","Word","roses",1,715,860,9,209
"210",601,"NZ","Noise","Word","bloated",1,998,715,10,210
"211",601,"NZ","Noise","Word","poky",0,1095,998,11,211
"212",601,"NZ","Noise","Nonword","sposses",1,1244,1095,12,212
"213",601,"NZ","Noise","Word","starving",1,861,1244,13,213
"214",601,"NZ","Noise","Nonword","smoby",1,1016,861,14,214
"215",601,"NZ","Noise","Word","office",1,727,1016,15,215
"216",601,"NZ","Noise","Nonword","zarden",1,750,727,16,216
"217",601,"NZ","Noise","Nonword","frodgen",1,874,750,17,217
"218",601,"NZ","Noise","Word","floating",1,801,874,18,218
"219",601,"NZ","Noise","Nonword","garking",1,757,801,19,219
"220",601,"NZ","Noise","Nonword","zasking",1,888,757,20,220
"221",601,"NZ","Noise","Word","oaky",0,853,888,21,221
"222",601,"NZ","Noise","Nonword","woney",1,909,853,22,222
"223",601,"NZ","Noise","Word","noble",1,950,909,23,223
"224",601,"NZ","Noise","Word","organ",1,881,950,24,224
"225",601,"NZ","Noise","Nonword","thwabble",1,898,881,25,225
"226",601,"NZ","Noise","Nonword","fasking",1,939,898,26,226
"227",601,"NZ","Noise","Word","ocean",1,842,939,27,227
"228",601,"NZ","Noise","Word","sharpest",1,1145,842,28,228
"229",601,"NZ","Noise","Word","boxes",1,829,1145,29,229
"230",601,"NZ","Noise","Word","arty",1,979,829,30,230
"231",601,"NZ","Noise","Word","waffle",1,771,979,31,231
"232",601,"NZ","Noise","Nonword","praffing",1,822,771,32,232
"233",601,"NZ","Noise","Nonword","charvist",1,889,822,33,233
"234",601,"NZ","Noise","Nonword","broselet",1,1114,889,34,234
"235",601,"NZ","Noise","Word","coughing",0,882,1114,35,235
"236",601,"NZ","Noise","Nonword","carching",1,964,882,36,236
"237",601,"NZ","Noise","Word","fasten",0,1106,964,37,237
"238",601,"NZ","Noise","Nonword","rozzing",1,1493,1106,38,238
"239",601,"NZ","Noise","Word","fasting",0,1152,1493,39,239
"240",601,"NZ","Noise","Nonword","foaping",0,1035,1152,40,240
"241",601,"NZ","Noise","Word","harming",1,923,1035,41,241
"242",601,"NZ","Noise","Word","party",1,812,923,42,242
"243",601,"NZ","Noise","Nonword","croating",1,1031,812,43,243
"244",601,"NZ","Noise","Word","burning",0,961,1031,44,244
"245",601,"NZ","Noise","Nonword","skorking",1,1131,961,45,245
"246",601,"NZ","Noise","Nonword","shorkel",1,1174,1131,46,246
"247",601,"NZ","Noise","Word","prancing",0,1225,1174,47,247
"248",601,"NZ","Noise","Word","slotting",1,909,1225,48,248
"249",601,"NZ","Noise","Word","lasted",1,1203,909,49,249
"250",601,"NZ","Noise","Nonword","plarsy",1,1458,1203,50,250
"251",601,"NZ","Silence","Word","market",1,952,994,1,251
"252",601,"NZ","Silence","Word","stopping",1,874,952,2,252
"253",601,"NZ","Silence","Nonword","zirty",1,1017,874,3,253
"254",601,"NZ","Silence","Word","clotted",1,949,1017,4,254
"255",601,"NZ","Silence","Nonword","zornet",1,840,949,5,255
"256",601,"NZ","Silence","Nonword","roaning",1,880,840,6,256
"257",601,"NZ","Silence","Word","lonely",1,912,880,7,257
"258",601,"NZ","Silence","Nonword","boapy",1,765,912,8,258
"259",601,"NZ","Silence","Nonword","spasking",1,954,765,9,259
"260",601,"NZ","Silence","Nonword","tanches",0,975,954,10,260
"261",601,"NZ","Silence","Nonword","brancing",0,939,975,11,261
"262",601,"NZ","Silence","Nonword","gurky",1,793,939,12,262
"263",601,"NZ","Silence","Nonword","varsen",0,1000,793,13,263
"264",601,"NZ","Silence","Nonword","bloppy",1,824,1000,14,264
"265",601,"NZ","Silence","Word","masking",0,942,824,15,265
"266",601,"NZ","Silence","Word","gotten",1,779,942,16,266
"267",601,"NZ","Silence","Word","drafting",1,739,779,17,267
"268",601,"NZ","Silence","Word","losses",1,940,739,18,268
"269",601,"NZ","Silence","Word","forty",1,923,940,19,269
"270",601,"NZ","Silence","Word","profit",1,843,923,20,270
"271",601,"NZ","Silence","Word","soften",1,857,843,21,271
"272",601,"NZ","Silence","Nonword","fozen",1,816,857,22,272
"273",601,"NZ","Silence","Nonword","ploxes",0,965,816,23,273
"274",601,"NZ","Silence","Word","smoky",1,1067,965,24,274
"275",601,"NZ","Silence","Word","dancing",1,679,1067,25,275
"276",601,"NZ","Silence","Nonword","sarnel",1,935,679,26,276
"277",601,"NZ","Silence","Word","washing",1,718,935,27,277
"278",601,"NZ","Silence","Word","warning",1,1191,718,28,278
"279",601,"NZ","Silence","Nonword","wancet",1,1112,1191,29,279
"280",601,"NZ","Silence","Word","phoning",1,968,1112,30,280
"281",601,"NZ","Silence","Nonword","purney",1,772,968,31,281
"282",601,"NZ","Silence","Word","crosses",1,689,772,32,282
"283",601,"NZ","Silence","Nonword","blassing",1,815,689,33,283
"284",601,"NZ","Silence","Nonword","broaded",1,854,815,34,284
"285",601,"NZ","Silence","Nonword","ortal",1,815,854,35,285
"286",601,"NZ","Silence","Word","parting",1,778,815,36,286
"287",601,"NZ","Silence","Nonword","kearthly",1,851,778,37,287
"288",601,"NZ","Silence","Word","person",1,927,851,38,288
"289",601,"NZ","Silence","Word","thirty",1,903,927,39,289
"290",601,"NZ","Silence","Nonword","thoffit",1,1010,903,40,290
"291",601,"NZ","Silence","Nonword","lasket",1,1165,1010,41,291
"292",601,"NZ","Silence","Nonword","verlip",1,904,1165,42,292
"293",601,"NZ","Silence","Word","rafting",1,833,904,43,293
"294",601,"NZ","Silence","Word","burden",0,692,833,44,294
"295",601,"NZ","Silence","Word","cosy",1,714,692,45,295
"296",601,"NZ","Silence","Word","curtain",1,827,714,46,296
"297",601,"NZ","Silence","Word","sorry",1,765,827,47,297
"298",601,"NZ","Silence","Nonword","kosken",1,966,765,48,298
"299",601,"NZ","Silence","Nonword","ploguing",1,702,966,49,299
"300",601,"NZ","Silence","Nonword","dwotten",1,831,702,50,300
"301",602,"US","Music","Nonword","fosted",1,1056,994,1,1
"302",602,"US","Music","Word","sorrow",1,1160,1056,2,2
"303",602,"US","Music","Nonword","carching",1,1232,1160,3,3
"304",602,"US","Music","Nonword","varling",1,1085,1232,4,4
"305",602,"US","Music","Word","doting",0,1186,1085,5,5
"306",602,"US","Music","Word","garnet",1,1286,1186,6,6
"307",602,"US","Music","Nonword","bloppy",0,1080,1286,7,7
"308",602,"US","Music","Word","forty",1,1152,1080,8,8
"309",602,"US","Music","Word","sausage",1,1061,1152,9,9
"310",602,"US","Music","Nonword","spasking",1,1166,1061,10,10
"311",602,"US","Music","Word","clotted",1,1386,1166,11,11
"312",602,"US","Music","Word","noted",1,1143,1386,12,12
"313",602,"US","Music","Nonword","chormel",1,1113,1143,13,13
"314",602,"US","Music","Word","cosy",1,980,1113,14,14
"315",602,"US","Music","Word","crafting",1,1029,980,15,15
"316",602,"US","Music","Nonword","charvist",1,1034,1029,16,16
"317",602,"US","Music","Nonword","masty",1,1332,1034,17,17
"318",602,"US","Music","Word","bloated",1,887,1332,18,18
"319",602,"US","Music","Nonword","vorden",1,1030,887,19,19
"320",602,"US","Music","Nonword","furning",1,1494,1030,20,20
"321",602,"US","Music","Nonword","korty",1,1452,1494,21,21
"322",602,"US","Music","Nonword","twoppy",1,1361,1452,22,22
"323",602,"US","Music","Word","woven",1,1002,1361,23,23
"324",602,"US","Music","Word","harpist",0,1300,1002,24,24
"325",602,"US","Music","Word","carving",1,980,1300,25,25
"326",602,"US","Music","Word","stances",1,1152,980,26,26
"327",602,"US","Music","Nonword","chorget",1,1126,1152,27,27
"328",602,"US","Music","Nonword","blassing",1,1246,1126,28,28
"329",602,"US","Music","Word","market",1,993,1246,29,29
"330",602,"US","Music","Nonword","sersect",1,1106,993,30,30
"331",602,"US","Music","Nonword","snurchen",1,1038,1106,31,31
"332",602,"US","Music","Nonword","woney",1,1184,1038,32,32
"333",602,"US","Music","Nonword","tarma",1,1034,1184,33,33
"334",602,"US","Music","Nonword","rozzing",1,1516,1034,34,34
"335",602,"US","Music","Word","poky",1,1991,1516,35,35
"336",602,"US","Music","Nonword","wancet",1,1045,1991,36,36
"337",602,"US","Music","Word","ocean",1,879,1045,37,37
"338",602,"US","Music","Nonword","dasping",1,977,879,38,38
"339",602,"US","Music","Word","arming",1,1065,977,39,39
"340",602,"US","Music","Word","arty",1,1171,1065,40,40
"341",602,"US","Music","Nonword","zasking",1,1053,1171,41,41
"342",602,"US","Music","Word","phoning",1,820,1053,42,42
"343",602,"US","Music","Word","starving",1,962,820,43,43
"344",602,"US","Music","Word","posted",1,943,962,44,44
"345",602,"US","Music","Word","floating",1,893,943,45,45
"346",602,"US","Music","Nonword","ortal",1,908,893,46,46
"347",602,"US","Music","Nonword","dronchel",1,1017,908,47,47
"348",602,"US","Music","Nonword","furden",1,1030,1017,48,48
"349",602,"US","Music","Word","drafting",1,775,1030,49,49
"350",602,"US","Music","Word","prancing",1,1021,775,50,50
"351",602,"US","Silence","Word","certain",1,1150,994,1,51
"352",602,"US","Silence","Nonword","donely",1,1097,1150,2,52
"353",602,"US","Silence","Nonword","tharving",1,1055,1097,3,53
"354",602,"US","Silence","Word","slotting",0,1038,1055,4,54
"355",602,"US","Silence","Nonword","banches",1,1007,1038,5,55
"356",602,"US","Silence","Nonword","swoded",1,1110,1007,6,56
"357",602,"US","Silence","Nonword","brancing",1,1030,1110,7,57
"358",602,"US","Silence","Word","crosses",1,1086,1030,8,58
"359",602,"US","Silence","Word","sporty",1,1020,1086,9,59
"360",602,"US","Silence","Nonword","zirty",1,1152,1020,10,60
"361",602,"US","Silence","Nonword","gloffle",1,1368,1152,11,61
"362",602,"US","Silence","Nonword","smoby",1,1234,1368,12,62
"363",602,"US","Silence","Nonword","yormal",1,1125,1234,13,63
"364",602,"US","Silence","Nonword","thwabble",1,1182,1125,14,64
"365",602,"US","Silence","Nonword","fasking",1,1185,1182,15,65
"366",602,"US","Silence","Word","karma",1,1014,1185,16,66
"367",602,"US","Silence","Nonword","frodgen",1,1095,1014,17,67
"368",602,"US","Silence","Nonword","twokker",1,1104,1095,18,68
"369",602,"US","Silence","Word","pardon",1,992,1104,19,69
"370",602,"US","Silence","Word","yearning",0,1123,992,20,70
"371",602,"US","Silence","Nonword","hargy",1,1149,1123,21,71
"372",602,"US","Silence","Nonword","lorcet",1,1140,1149,22,72
"373",602,"US","Silence","Nonword","swonches",1,1201,1140,23,73
"374",602,"US","Silence","Word","flirty",1,1162,1201,24,74
"375",602,"US","Silence","Nonword","zarchet",1,961,1162,25,75
"376",602,"US","Silence","Word","waffle",1,948,961,26,76
"377",602,"US","Silence","Word","casting",1,995,948,27,77
"378",602,"US","Silence","Nonword","kirty",1,1035,995,28,78
"379",602,"US","Silence","Nonword","croating",1,979,1035,29,79
"380",602,"US","Silence","Word","offer",1,1604,979,30,80
"381",602,"US","Silence","Word","longing",1,1189,1604,31,81
"382",602,"US","Silence","Word","dirty",1,985,1189,32,82
"383",602,"US","Silence","Word","spoken",1,918,985,33,83
"384",602,"US","Silence","Nonword","zarmest",1,956,918,34,84
"385",602,"US","Silence","Word","sharpen",1,1102,956,35,85
"386",602,"US","Silence","Nonword","sarnel",1,1098,1102,36,86
"387",602,"US","Silence","Word","boxes",1,1156,1098,37,87
"388",602,"US","Silence","Word","dancing",1,990,1156,38,88
"389",602,"US","Silence","Nonword","skorking",1,1242,990,39,89
"390",602,"US","Silence","Word","burden",0,1263,1242,40,90
"391",602,"US","Silence","Word","roading",0,1396,1263,41,91
"392",602,"US","Silence","Word","soapy",1,1199,1396,42,92
"393",602,"US","Silence","Nonword","garking",1,1107,1199,43,93
"394",602,"US","Silence","Nonword","koble",1,1345,1107,44,94
"395",602,"US","Silence","Word","party",1,1049,1345,45,95
"396",602,"US","Silence","Word","stronger",1,1042,1049,46,96
"397",602,"US","Silence","Word","warning",1,1042,1042,47,97
"398",602,"US","Silence","Word","harming",1,1025,1042,48,98
"399",602,"US","Silence","Nonword","soating",1,1232,1025,49,99
"400",602,"US","Silence","Word","hoarding",1,997,1232,50,100
"401",602,"US","Noise","Nonword","mozing",1,1177,994,1,101
"402",602,"US","Noise","Word","smoky",1,976,1177,2,102
"403",602,"US","Noise","Nonword","broaded",1,1282,976,3,103
"404",602,"US","Noise","Word","squabble",0,1065,1282,4,104
"405",602,"US","Noise","Nonword","poven",1,1287,1065,5,105
"406",602,"US","Noise","Word","gotten",0,1160,1287,6,106
"407",602,"US","Noise","Word","lonely",1,853,1160,7,107
"408",602,"US","Noise","Nonword","sposses",1,1210,853,8,108
"409",602,"US","Noise","Word","burning",1,941,1210,9,109
"410",602,"US","Noise","Word","lasted",1,987,941,10,110
"411",602,"US","Noise","Word","thorny",1,1098,987,11,111
"412",602,"US","Noise","Word","stopping",1,976,1098,12,112
"413",602,"US","Noise","Word","hosting",1,973,976,13,113
"414",602,"US","Noise","Word","worsen",1,1105,973,14,114
"415",602,"US","Noise","Nonword","saffing",1,1164,1105,15,115
"416",602,"US","Noise","Word","garden",1,1062,1164,16,116
"417",602,"US","Noise","Word","farming",1,990,1062,17,117
"418",602,"US","Noise","Word","cornet",0,1247,990,18,118
"419",602,"US","Noise","Word","portrait",1,1284,1247,19,119
"420",602,"US","Noise","Word","hearty",1,1144,1284,20,120
"421",602,"US","Noise","Word","lancet",0,1036,1144,21,121
"422",602,"US","Noise","Word","boating",0,1211,1036,22,122
"423",602,"US","Noise","Word","prodded",1,1339,1211,23,123
"424",602,"US","Noise","Word","trophy",1,1096,1339,24,124
"425",602,"US","Noise","Nonword","broaming",1,1250,1096,25,125
"426",602,"US","Noise","Nonword","thoving",1,1109,1250,26,126
"427",602,"US","Noise","Nonword","plarsy",1,1204,1109,27,127
"428",602,"US","Noise","Nonword","flonger",1,1272,1204,28,128
"429",602,"US","Noise","Nonword","fample",1,1157,1272,29,129
"430",602,"US","Noise","Word","casket",1,1075,1157,30,130
"431",602,"US","Noise","Nonword","smoated",1,1067,1075,31,131
"432",602,"US","Noise","Nonword","dastness",1,1094,1067,32,132
"433",602,"US","Noise","Nonword","dwotten",1,1000,1094,33,133
"434",602,"US","Noise","Word","quarry",1,1150,1000,34,134
"435",602,"US","Noise","Nonword","yoster",1,1075,1150,35,135
"436",602,"US","Noise","Nonword","obbin",1,1121,1075,36,136
"437",602,"US","Noise","Word","formal",1,1101,1121,37,137
"438",602,"US","Noise","Nonword","fozen",1,1352,1101,38,138
"439",602,"US","Noise","Nonword","smophy",1,1293,1352,39,139
"440",602,"US","Noise","Nonword","purney",0,1391,1293,40,140
"441",602,"US","Noise","Word","asking",1,1045,1391,41,141
"442",602,"US","Noise","Word","coffee",1,895,1045,42,142
"443",602,"US","Noise","Nonword","ploxes",1,1168,895,43,143
"444",602,"US","Noise","Nonword","pasking",0,1467,1168,44,144
"445",602,"US","Noise","Nonword","ploguing",1,1193,1467,45,145
"446",602,"US","Noise","Nonword","soffice",1,1306,1193,46,146
"447",602,"US","Noise","Nonword","snarfen",1,1257,1306,47,147
"448",602,"US","Noise","Nonword","clarny",1,1315,1257,48,148
"449",602,"US","Noise","Nonword","bozes",1,1469,1315,49,149
"450",602,"US","Noise","Word","earthly",0,1244,1469,50,150
"451",602,"NZ","Music","Nonword","splaffing",1,1155,994,1,151
"452",602,"NZ","Music","Word","morning",1,893,1155,2,152
"453",602,"NZ","Music","Nonword","troaky",1,945,893,3,153
"454",602,"NZ","Music","Word","sorry",1,949,945,4,154
"455",602,"NZ","Music","Word","mortal",1,1006,949,5,155
"456",602,"NZ","Music","Nonword","gorrow",1,937,1006,6,156
"457",602,"NZ","Music","Nonword","eargy",1,1097,937,7,157
"458",602,"NZ","Music","Word","losses",0,1157,1097,8,158
"459",602,"NZ","Music","Word","loaded",1,1023,1157,9,159
"460",602,"NZ","Music","Word","hoping",1,949,1023,10,160
"461",602,"NZ","Music","Nonword","wothing",1,1016,949,11,161
"462",602,"NZ","Music","Word","woken",1,1040,1016,12,162
"463",602,"NZ","Music","Nonword","stanches",1,1309,1040,13,163
"464",602,"NZ","Music","Nonword","sorpoise",1,1167,1309,14,164
"465",602,"NZ","Music","Nonword","lasket",1,1204,1167,15,165
"466",602,"NZ","Music","Nonword","boapy",1,1038,1204,16,166
"467",602,"NZ","Music","Nonword","verlip",1,1264,1038,17,167
"468",602,"NZ","Music","Word","washing",1,818,1264,18,168
"469",602,"NZ","Music","Nonword","shorkel",1,1114,818,19,169
"470",602,"NZ","Music","Word","perfect",1,844,1114,20,170
"471",602,"NZ","Music","Word","branches",0,1002,844,21,171
"472",602,"NZ","Music","Word","coughing",1,906,1002,22,172
"473",602,"NZ","Music","Nonword","pranted",1,996,906,23,173
"474",602,"NZ","Music","Word","frozen",1,892,996,24,174
"475",602,"NZ","Music","Nonword","vertain",1,1015,892,25,175
"476",602,"NZ","Music","Word","harden",1,905,1015,26,176
"477",602,"NZ","Music","Nonword","thoffit",1,1029,905,27,177
"478",602,"NZ","Music","Word","coping",1,1052,1029,28,178
"479",602,"NZ","Music","Nonword","fodding",0,911,1052,29,179
"480",602,"NZ","Music","Word","thirty",0,1019,911,30,180
"481",602,"NZ","Music","Nonword","shormet",1,990,1019,31,181
"482",602,"NZ","Music","Word","classes",1,980,990,32,182
"483",602,"NZ","Music","Word","granted",1,971,980,33,183
"484",602,"NZ","Music","Word","staffing",0,966,971,34,184
"485",602,"NZ","Music","Nonword","zearning",1,1037,966,35,185
"486",602,"NZ","Music","Word","clothing",1,919,1037,36,186
"487",602,"NZ","Music","Word","basket",1,927,919,37,187
"488",602,"NZ","Music","Nonword","modging",1,1029,927,38,188
"489",602,"NZ","Music","Nonword","morgeous",1,1041,1029,39,189
"490",602,"NZ","Music","Nonword","gurky",1,1016,1041,40,190
"491",602,"NZ","Music","Nonword","groating",1,1149,1016,41,191
"492",602,"NZ","Music","Word","planting",1,1096,1149,42,192
"493",602,"NZ","Music","Word","organ",1,976,1096,43,193
"494",602,"NZ","Music","Nonword","dorty",1,990,976,44,194
"495",602,"NZ","Music","Nonword","praffing",1,1024,990,45,195
"496",602,"NZ","Music","Word","parting",1,1089,1024,46,196
"497",602,"NZ","Music","Nonword","purnel",1,1014,1089,47,197
"498",602,"NZ","Music","Nonword","frozzy",1,924,1014,48,198
"499",602,"NZ","Music","Word","office",1,841,924,49,199
"500",602,"NZ","Music","Word","person",1,916,841,50,200
"501",602,"NZ","Silence","Nonword","foting",0,1341,994,1,201
"502",602,"NZ","Silence","Word","clasping",0,1243,1341,2,202
"503",602,"NZ","Silence","Nonword","chodges",1,1002,1243,3,203
"504",602,"NZ","Silence","Word","costly",1,959,1002,4,204
"505",602,"NZ","Silence","Nonword","sasten",1,1005,959,5,205
"506",602,"NZ","Silence","Nonword","stasking",1,1077,1005,6,206
"507",602,"NZ","Silence","Word","rotten",1,1037,1077,7,207
"508",602,"NZ","Silence","Word","slanted",1,1120,1037,8,208
"509",602,"NZ","Silence","Nonword","foaping",1,1049,1120,9,209
"510",602,"NZ","Silence","Word","knowledge",1,1011,1049,10,210
"511",602,"NZ","Silence","Word","shafting",0,1588,1011,11,211
"512",602,"NZ","Silence","Nonword","varpon",1,1263,1588,12,212
"513",602,"NZ","Silence","Nonword","tanches",0,992,1263,13,213
"514",602,"NZ","Silence","Word","rafting",1,865,992,14,214
"515",602,"NZ","Silence","Nonword","shoated",1,1062,865,15,215
"516",602,"NZ","Silence","Nonword","barvet",1,1038,1062,16,216
"517",602,"NZ","Silence","Word","soaking",1,991,1038,17,217
"518",602,"NZ","Silence","Word","foster",1,1077,991,18,218
"519",602,"NZ","Silence","Word","kernel",1,1141,1077,19,219
"520",602,"NZ","Silence","Word","often",1,1087,1141,20,220
"521",602,"NZ","Silence","Nonword","groledge",1,1373,1087,21,221
"522",602,"NZ","Silence","Nonword","zornet",1,1169,1373,22,222
"523",602,"NZ","Silence","Word","roses",1,990,1169,23,223
"524",602,"NZ","Silence","Nonword","kearthly",1,1024,990,24,224
"525",602,"NZ","Silence","Nonword","parshing",1,1193,1024,25,225
"526",602,"NZ","Silence","Word","sharpest",0,1264,1193,26,226
"527",602,"NZ","Silence","Nonword","prasses",0,1375,1264,27,227
"528",602,"NZ","Silence","Nonword","eardest",1,1114,1375,28,228
"529",602,"NZ","Silence","Nonword","broselet",1,1148,1114,29,229
"530",602,"NZ","Silence","Word","chanting",1,936,1148,30,230
"531",602,"NZ","Silence","Nonword","vording",0,1233,936,31,231
"532",602,"NZ","Silence","Word","masking",1,1161,1233,32,232
"533",602,"NZ","Silence","Nonword","gronest",1,1248,1161,33,233
"534",602,"NZ","Silence","Word","largest",1,1188,1248,34,234
"535",602,"NZ","Silence","Nonword","spoaming",1,1104,1188,35,235
"536",602,"NZ","Silence","Nonword","zosses",1,1146,1104,36,236
"537",602,"NZ","Silence","Nonword","zarden",1,1101,1146,37,237
"538",602,"NZ","Silence","Word","portal",1,1064,1101,38,238
"539",602,"NZ","Silence","Nonword","gasking",1,1125,1064,39,239
"540",602,"NZ","Silence","Word","journal",1,1192,1125,40,240
"541",602,"NZ","Silence","Word","orbit",0,1104,1192,41,241
"542",602,"NZ","Silence","Nonword","frobing",1,1111,1104,42,242
"543",602,"NZ","Silence","Word","charming",1,1013,1111,43,243
"544",602,"NZ","Silence","Word","fasting",1,1021,1013,44,244
"545",602,"NZ","Silence","Word","soften",1,918,1021,45,245
"546",602,"NZ","Silence","Nonword","dassing",1,1044,918,46,246
"547",602,"NZ","Silence","Word","porpoise",0,1036,1044,47,247
"548",602,"NZ","Silence","Word","hornet",1,1099,1036,48,248
"549",602,"NZ","Silence","Word","corpus",0,1071,1099,49,249
"550",602,"NZ","Silence","Nonword","sprollen",1,1095,1071,50,250
"551",602,"NZ","Noise","Word","early",1,1085,994,1,251
"552",602,"NZ","Noise","Word","earnest",0,1087,1085,2,252
"553",602,"NZ","Noise","Nonword","chodded",1,1029,1087,3,253
"554",602,"NZ","Noise","Nonword","morbing",1,1118,1029,4,254
"555",602,"NZ","Noise","Nonword","ormet",1,1050,1118,5,255
"556",602,"NZ","Noise","Nonword","kosken",1,1051,1050,6,256
"557",602,"NZ","Noise","Word","warden",0,1581,1051,7,257
"558",602,"NZ","Noise","Word","laughing",1,953,1581,8,258
"559",602,"NZ","Noise","Nonword","zancing",0,854,953,9,259
"560",602,"NZ","Noise","Word","profit",0,1141,854,10,260
"561",602,"NZ","Noise","Word","partial",1,1021,1141,11,261
"562",602,"NZ","Noise","Nonword","talving",1,1239,1021,12,262
"563",602,"NZ","Noise","Word","notches",1,892,1239,13,263
"564",602,"NZ","Noise","Nonword","hasket",1,1081,892,14,264
"565",602,"NZ","Noise","Nonword","glarshest",1,1150,1081,15,265
"566",602,"NZ","Noise","Word","noble",1,993,1150,16,266
"567",602,"NZ","Noise","Word","broken",1,874,993,17,267
"568",602,"NZ","Noise","Word","curtain",1,1070,874,18,268
"569",602,"NZ","Noise","Word","oaky",0,1001,1070,19,269
"570",602,"NZ","Noise","Word","blasting",1,1160,1001,20,270
"571",602,"NZ","Noise","Nonword","narshing",1,1129,1160,21,271
"572",602,"NZ","Noise","Nonword","hoaken",1,1174,1129,22,272
"573",602,"NZ","Noise","Word","normal",1,1080,1174,23,273
"574",602,"NZ","Noise","Word","token",1,908,1080,24,274
"575",602,"NZ","Noise","Nonword","prothy",0,1309,908,25,275
"576",602,"NZ","Noise","Nonword","plasses",0,1105,1309,26,276
"577",602,"NZ","Noise","Word","coffin",1,940,1105,27,277
"578",602,"NZ","Noise","Word","journey",1,985,940,28,278
"579",602,"NZ","Noise","Nonword","blerking",1,951,985,29,279
"580",602,"NZ","Noise","Word","glasses",1,848,951,30,280
"581",602,"NZ","Noise","Nonword","florcen",1,972,848,31,281
"582",602,"NZ","Noise","Word","fasten",1,1441,972,32,282
"583",602,"NZ","Noise","Nonword","roaning",1,1149,1441,33,283
"584",602,"NZ","Noise","Word","poaching",1,1099,1149,34,284
"585",602,"NZ","Noise","Word","gasping",1,881,1099,35,285
"586",602,"NZ","Noise","Nonword","zotted",1,975,881,36,286
"587",602,"NZ","Noise","Word","brothel",1,924,975,37,287
"588",602,"NZ","Noise","Nonword","choathy",1,866,924,38,288
"589",602,"NZ","Noise","Nonword","mernel",1,1000,866,39,289
"590",602,"NZ","Noise","Word","sample",1,1129,1000,40,290
"591",602,"NZ","Noise","Nonword","blanting",1,1267,1129,41,291
"592",602,"NZ","Noise","Nonword","zoting",1,1652,1267,42,292
"593",602,"NZ","Noise","Nonword","plancis",1,1399,1652,43,293
"594",602,"NZ","Noise","Word","passing",1,913,1399,44,294
"595",602,"NZ","Noise","Nonword","plorset",1,1260,913,45,295
"596",602,"NZ","Noise","Nonword","varsen",0,924,1260,46,296
"597",602,"NZ","Noise","Nonword","garning",1,1205,924,47,297
"598",602,"NZ","Noise","Word","shorten",1,1067,1205,48,298
"599",602,"NZ","Noise","Word","grasping",1,1146,1067,49,299
"600",602,"NZ","Noise","Nonword","safting",1,1193,1146,50,300
"601",603,"US","Noise","Word","quarry",1,1575,994,1,1
"602",603,"US","Noise","Nonword","fozen",1,1454,1575,2,2
"603",603,"US","Noise","Word","phoning",1,1823,1454,3,3
"604",603,"US","Noise","Nonword","chormel",1,1310,1823,4,4
"605",603,"US","Noise","Nonword","shoated",1,1625,1310,5,5
"606",603,"US","Noise","Word","farming",0,0,1625,6,6
"607",603,"US","Noise","Word","sharpest",1,1215,994,7,7
"608",603,"US","Noise","Nonword","hargy",1,1295,1215,8,8
"609",603,"US","Noise","Nonword","thwabble",1,896,1295,9,9
"610",603,"US","Noise","Nonword","prothy",1,965,896,10,10
"611",603,"US","Noise","Nonword","broaming",1,1568,965,11,11
"612",603,"US","Noise","Word","coffee",1,982,1568,12,12
"613",603,"US","Noise","Nonword","parshing",1,1213,982,13,13
"614",603,"US","Noise","Nonword","furden",1,1104,1213,14,14
"615",603,"US","Noise","Word","portal",0,0,1104,15,15
"616",603,"US","Noise","Nonword","dassing",1,1184,994,16,16
"617",603,"US","Noise","Nonword","saffing",1,928,1184,17,17
"618",603,"US","Noise","Word","asking",1,851,928,18,18
"619",603,"US","Noise","Word","loaded",1,1097,851,19,19
"620",603,"US","Noise","Word","harpist",1,1231,1097,20,20
"621",603,"US","Noise","Word","stronger",1,1157,1231,21,21
"622",603,"US","Noise","Word","posted",1,1083,1157,22,22
"623",603,"US","Noise","Nonword","fosted",0,0,1083,23,23
"624",603,"US","Noise","Nonword","garning",1,1185,994,24,24
"625",603,"US","Noise","Word","clasping",1,1274,1185,25,25
"626",603,"US","Noise","Word","warning",1,1091,1274,26,26
"627",603,"US","Noise","Word","classes",1,1270,1091,27,27
"628",603,"US","Noise","Word","cornet",0,2169,1270,28,28
"629",603,"US","Noise","Word","arming",1,1018,2169,29,29
"630",603,"US","Noise","Nonword","sprollen",1,1400,1018,30,30
"631",603,"US","Noise","Word","warden",1,1510,1400,31,31
"632",603,"US","Noise","Word","foster",0,1631,1510,32,32
"633",603,"US","Noise","Word","kernel",1,1155,1631,33,33
"634",603,"US","Noise","Nonword","furning",0,1086,1155,34,34
"635",603,"US","Noise","Nonword","brancing",1,2438,1086,35,35
"636",603,"US","Noise","Word","grasping",1,848,2438,36,36
"637",603,"US","Noise","Nonword","plorset",1,1114,848,37,37
"638",603,"US","Noise","Word","forty",0,0,1114,38,38
"639",603,"US","Noise","Nonword","poven",1,1214,994,39,39
"640",603,"US","Noise","Nonword","twokker",1,1360,1214,40,40
"641",603,"US","Noise","Word","oaky",1,2453,1360,41,41
"642",603,"US","Noise","Nonword","sersect",1,1200,2453,42,42
"643",603,"US","Noise","Word","noted",1,1312,1200,43,43
"644",603,"US","Noise","Nonword","masty",1,1906,1312,44,44
"645",603,"US","Noise","Nonword","bloppy",0,2256,1906,45,45
"646",603,"US","Noise","Nonword","frozzy",1,1248,2256,46,46
"647",603,"US","Noise","Nonword","roaning",1,1378,1248,47,47
"648",603,"US","Noise","Nonword","lorcet",1,988,1378,48,48
"649",603,"US","Noise","Word","sorry",1,1024,988,49,49
"650",603,"US","Noise","Word","prodded",0,1043,1024,50,50
"651",603,"US","Music","Word","fasting",1,1108,994,1,51
"652",603,"US","Music","Word","boxes",1,1035,1108,2,52
"653",603,"US","Music","Word","granted",1,888,1035,3,53
"654",603,"US","Music","Word","soften",1,1477,888,4,54
"655",603,"US","Music","Nonword","dorty",1,975,1477,5,55
"656",603,"US","Music","Word","early",1,1621,975,6,56
"657",603,"US","Music","Word","broken",1,873,1621,7,57
"658",603,"US","Music","Nonword","zoting",1,911,873,8,58
"659",603,"US","Music","Nonword","smoated",1,987,911,9,59
"660",603,"US","Music","Word","often",1,1175,987,10,60
"661",603,"US","Music","Nonword","kirty",1,1299,1175,11,61
"662",603,"US","Music","Word","woken",1,1097,1299,12,62
"663",603,"US","Music","Nonword","shormet",1,1025,1097,13,63
"664",603,"US","Music","Nonword","florcen",1,1246,1025,14,64
"665",603,"US","Music","Word","office",1,1049,1246,15,65
"666",603,"US","Music","Word","branches",1,1227,1049,16,66
"667",603,"US","Music","Nonword","twoppy",1,1280,1227,17,67
"668",603,"US","Music","Word","earthly",1,1119,1280,18,68
"669",603,"US","Music","Nonword","gloffle",1,861,1119,19,69
"670",603,"US","Music","Nonword","flonger",1,1123,861,20,70
"671",603,"US","Music","Word","normal",1,882,1123,21,71
"672",603,"US","Music","Nonword","zasking",1,1169,882,22,72
"673",603,"US","Music","Nonword","varling",1,904,1169,23,73
"674",603,"US","Music","Nonword","frobing",1,877,904,24,74
"675",603,"US","Music","Word","costly",1,1067,877,25,75
"676",603,"US","Music","Word","organ",1,878,1067,26,76
"677",603,"US","Music","Nonword","tarma",1,1016,878,27,77
"678",603,"US","Music","Word","profit",1,963,1016,28,78
"679",603,"US","Music","Nonword","blanting",1,914,963,29,79
"680",603,"US","Music","Word","hosting",1,955,914,30,80
"681",603,"US","Music","Word","carving",1,1009,955,31,81
"682",603,"US","Music","Nonword","chorget",1,1047,1009,32,82
"683",603,"US","Music","Nonword","rozzing",1,959,1047,33,83
"684",603,"US","Music","Nonword","sposses",1,1496,959,34,84
"685",603,"US","Music","Word","porpoise",1,1041,1496,35,85
"686",603,"US","Music","Nonword","banches",1,1029,1041,36,86
"687",603,"US","Music","Word","frozen",1,1022,1029,37,87
"688",603,"US","Music","Nonword","swonches",1,932,1022,38,88
"689",603,"US","Music","Nonword","vorden",1,941,932,39,89
"690",603,"US","Music","Word","morning",1,1134,941,40,90
"691",603,"US","Music","Word","formal",1,1018,1134,41,91
"692",603,"US","Music","Nonword","gronest",1,1197,1018,42,92
"693",603,"US","Music","Nonword","modging",1,1024,1197,43,93
"694",603,"US","Music","Nonword","boapy",1,1397,1024,44,94
"695",603,"US","Music","Word","hornet",1,1341,1397,45,95
"696",603,"US","Music","Word","sorrow",1,1360,1341,46,96
"697",603,"US","Music","Word","pardon",1,2202,1360,47,97
"698",603,"US","Music","Word","clothing",1,866,2202,48,98
"699",603,"US","Music","Nonword","glarshest",1,872,866,49,99
"700",603,"US","Music","Nonword","blerking",0,1117,872,50,100
"701",603,"US","Silence","Nonword","thoffit",1,1122,994,1,101
"702",603,"US","Silence","Nonword","smophy",1,984,1122,2,102
"703",603,"US","Silence","Word","party",0,1148,984,3,103
"704",603,"US","Silence","Nonword","spoaming",1,1001,1148,4,104
"705",603,"US","Silence","Word","lancet",0,1837,1001,5,105
"706",603,"US","Silence","Nonword","groating",1,927,1837,6,106
"707",603,"US","Silence","Word","coughing",1,1020,927,7,107
"708",603,"US","Silence","Word","perfect",1,861,1020,8,108
"709",603,"US","Silence","Nonword","tanches",1,1484,861,9,109
"710",603,"US","Silence","Nonword","zarden",1,893,1484,10,110
"711",603,"US","Silence","Word","shorten",1,893,893,11,111
"712",603,"US","Silence","Word","laughing",1,825,893,12,112
"713",603,"US","Silence","Nonword","gasking",1,986,825,13,113
"714",603,"US","Silence","Word","boating",0,874,986,14,114
"715",603,"US","Silence","Word","cosy",1,1262,874,15,115
"716",603,"US","Silence","Word","masking",1,832,1262,16,116
"717",603,"US","Silence","Word","karma",1,1008,832,17,117
"718",603,"US","Silence","Word","journey",1,1161,1008,18,118
"719",603,"US","Silence","Nonword","pranted",1,1142,1161,19,119
"720",603,"US","Silence","Nonword","garking",1,1468,1142,20,120
"721",603,"US","Silence","Word","washing",1,890,1468,21,121
"722",603,"US","Silence","Word","glasses",1,1064,890,22,122
"723",603,"US","Silence","Nonword","eardest",1,1113,1064,23,123
"724",603,"US","Silence","Nonword","foting",1,1457,1113,24,124
"725",603,"US","Silence","Nonword","yormal",1,1179,1457,25,125
"726",603,"US","Silence","Nonword","charvist",1,1198,1179,26,126
"727",603,"US","Silence","Nonword","korty",1,1062,1198,27,127
"728",603,"US","Silence","Word","parting",1,1199,1062,28,128
"729",603,"US","Silence","Word","shafting",1,1165,1199,29,129
"730",603,"US","Silence","Nonword","morbing",1,1136,1165,30,130
"731",603,"US","Silence","Nonword","narshing",1,982,1136,31,131
"732",603,"US","Silence","Word","sample",1,954,982,32,132
"733",603,"US","Silence","Word","chanting",1,1158,954,33,133
"734",603,"US","Silence","Nonword","chodded",1,872,1158,34,134
"735",603,"US","Silence","Nonword","swoded",1,1064,872,35,135
"736",603,"US","Silence","Nonword","mozing",1,956,1064,36,136
"737",603,"US","Silence","Word","coffin",1,1005,956,37,137
"738",603,"US","Silence","Nonword","fasking",1,1430,1005,38,138
"739",603,"US","Silence","Nonword","wothing",1,1048,1430,39,139
"740",603,"US","Silence","Nonword","ploxes",1,820,1048,40,140
"741",603,"US","Silence","Nonword","wancet",1,866,820,41,141
"742",603,"US","Silence","Word","casting",1,1123,866,42,142
"743",603,"US","Silence","Word","noble",1,910,1123,43,143
"744",603,"US","Silence","Word","thirty",1,1157,910,44,144
"745",603,"US","Silence","Word","burning",1,1679,1157,45,145
"746",603,"US","Silence","Word","hearty",0,1363,1679,46,146
"747",603,"US","Silence","Word","spoken",1,1005,1363,47,147
"748",603,"US","Silence","Nonword","tharving",1,1067,1005,48,148
"749",603,"US","Silence","Word","burden",1,869,1067,49,149
"750",603,"US","Silence","Nonword","kosken",1,981,869,50,150
"751",603,"NZ","Noise","Word","rotten",1,1418,994,1,151
"752",603,"NZ","Noise","Nonword","prasses",1,1021,1418,2,152
"753",603,"NZ","Noise","Word","harming",1,1003,1021,3,153
"754",603,"NZ","Noise","Word","doting",1,788,1003,4,154
"755",603,"NZ","Noise","Word","flirty",0,1485,788,5,155
"756",603,"NZ","Noise","Nonword","woney",1,1077,1485,6,156
"757",603,"NZ","Noise","Nonword","donely",1,1033,1077,7,157
"758",603,"NZ","Noise","Nonword","pasking",1,976,1033,8,158
"759",603,"NZ","Noise","Nonword","fodding",1,1098,976,9,159
"760",603,"NZ","Noise","Word","bloated",1,1047,1098,10,160
"761",603,"NZ","Noise","Nonword","dastness",1,1369,1047,11,161
"762",603,"NZ","Noise","Nonword","hasket",1,952,1369,12,162
"763",603,"NZ","Noise","Word","stopping",1,1455,952,13,163
"764",603,"NZ","Noise","Word","token",1,991,1455,14,164
"765",603,"NZ","Noise","Word","dirty",1,836,991,15,165
"766",603,"NZ","Noise","Nonword","morgeous",1,939,836,16,166
"767",603,"NZ","Noise","Word","harden",1,931,939,17,167
"768",603,"NZ","Noise","Nonword","snurchen",1,925,931,18,168
"769",603,"NZ","Noise","Nonword","vertain",1,918,925,19,169
"770",603,"NZ","Noise","Nonword","zotted",1,872,918,20,170
"771",603,"NZ","Noise","Nonword","dasping",1,999,872,21,171
"772",603,"NZ","Noise","Word","trophy",1,848,999,22,172
"773",603,"NZ","Noise","Word","clotted",1,1075,848,23,173
"774",603,"NZ","Noise","Nonword","thoving",1,1226,1075,24,174
"775",603,"NZ","Noise","Nonword","troaky",1,879,1226,25,175
"776",603,"NZ","Noise","Nonword","zosses",1,1350,879,26,176
"777",603,"NZ","Noise","Word","sporty",1,986,1350,27,177
"778",603,"NZ","Noise","Word","longing",1,1764,986,28,178
"779",603,"NZ","Noise","Word","basket",1,890,1764,29,179
"780",603,"NZ","Noise","Word","person",1,822,890,30,180
"781",603,"NZ","Noise","Nonword","purnel",1,1139,822,31,181
"782",603,"NZ","Noise","Nonword","foaping",1,999,1139,32,182
"783",603,"NZ","Noise","Nonword","zancing",1,1023,999,33,183
"784",603,"NZ","Noise","Word","squabble",1,1066,1023,34,184
"785",603,"NZ","Noise","Nonword","zarchet",1,806,1066,35,185
"786",603,"NZ","Noise","Nonword","zearning",1,882,806,36,186
"787",603,"NZ","Noise","Word","journal",1,840,882,37,187
"788",603,"NZ","Noise","Nonword","sarnel",1,863,840,38,188
"789",603,"NZ","Noise","Word","soapy",0,1217,863,39,189
"790",603,"NZ","Noise","Nonword","bozes",1,1172,1217,40,190
"791",603,"NZ","Noise","Word","yearning",1,1090,1172,41,191
"792",603,"NZ","Noise","Nonword","hoaken",1,849,1090,42,192
"793",603,"NZ","Noise","Word","soaking",1,931,849,43,193
"794",603,"NZ","Noise","Word","corpus",1,1008,931,44,194
"795",603,"NZ","Noise","Word","casket",1,943,1008,45,195
"796",603,"NZ","Noise","Nonword","koble",1,958,943,46,196
"797",603,"NZ","Noise","Nonword","broselet",1,1051,958,47,197
"798",603,"NZ","Noise","Word","portrait",1,1403,1051,48,198
"799",603,"NZ","Noise","Word","passing",1,1181,1403,49,199
"800",603,"NZ","Noise","Word","slotting",1,1076,1181,50,200
"801",603,"NZ","Music","Nonword","dwotten",1,988,994,1,201
"802",603,"NZ","Music","Word","stances",1,955,988,2,202
"803",603,"NZ","Music","Nonword","lasket",1,940,955,3,203
"804",603,"NZ","Music","Nonword","gorrow",1,767,940,4,204
"805",603,"NZ","Music","Word","lasted",1,934,767,5,205
"806",603,"NZ","Music","Nonword","blassing",1,950,934,6,206
"807",603,"NZ","Music","Word","roses",1,779,950,7,207
"808",603,"NZ","Music","Nonword","dronchel",1,1009,779,8,208
"809",603,"NZ","Music","Word","hoarding",1,1011,1009,9,209
"810",603,"NZ","Music","Word","waffle",1,886,1011,10,210
"811",603,"NZ","Music","Nonword","plarsy",0,914,886,11,211
"812",603,"NZ","Music","Nonword","skorking",1,1182,914,12,212
"813",603,"NZ","Music","Word","prancing",0,1028,1182,13,213
"814",603,"NZ","Music","Nonword","varpon",1,1524,1028,14,214
"815",603,"NZ","Music","Word","smoky",1,1041,1524,15,215
"816",603,"NZ","Music","Word","partial",1,833,1041,16,216
"817",603,"NZ","Music","Word","floating",1,1480,833,17,217
"818",603,"NZ","Music","Word","ocean",1,925,1480,18,218
"819",603,"NZ","Music","Nonword","yoster",1,1077,925,19,219
"820",603,"NZ","Music","Nonword","obbin",1,802,1077,20,220
"821",603,"NZ","Music","Word","staffing",1,1100,802,21,221
"822",603,"NZ","Music","Nonword","splaffing",1,907,1100,22,222
"823",603,"NZ","Music","Nonword","stasking",1,933,907,23,223
"824",603,"NZ","Music","Word","fasten",1,963,933,24,224
"825",603,"NZ","Music","Word","woven",1,1011,963,25,225
"826",603,"NZ","Music","Nonword","fample",1,980,1011,26,226
"827",603,"NZ","Music","Nonword","vording",1,859,980,27,227
"828",603,"NZ","Music","Word","earnest",1,791,859,28,228
"829",603,"NZ","Music","Word","certain",0,1207,791,29,229
"830",603,"NZ","Music","Nonword","ortal",1,1261,1207,30,230
"831",603,"NZ","Music","Word","arty",1,1217,1261,31,231
"832",603,"NZ","Music","Word","roading",1,1373,1217,32,232
"833",603,"NZ","Music","Word","blasting",0,995,1373,33,233
"834",603,"NZ","Music","Nonword","mernel",1,889,995,34,234
"835",603,"NZ","Music","Word","slanted",1,1078,889,35,235
"836",603,"NZ","Music","Nonword","zirty",1,1108,1078,36,236
"837",603,"NZ","Music","Word","orbit",1,856,1108,37,237
"838",603,"NZ","Music","Nonword","sasten",1,857,856,38,238
"839",603,"NZ","Music","Nonword","safting",1,999,857,39,239
"840",603,"NZ","Music","Word","losses",1,1123,999,40,240
"841",603,"NZ","Music","Nonword","ormet",1,979,1123,41,241
"842",603,"NZ","Music","Nonword","shorkel",1,943,979,42,242
"843",603,"NZ","Music","Nonword","ploguing",1,952,943,43,243
"844",603,"NZ","Music","Nonword","barvet",1,1141,952,44,244
"845",603,"NZ","Music","Word","rafting",1,1366,1141,45,245
"846",603,"NZ","Music","Nonword","praffing",1,1153,1366,46,246
"847",603,"NZ","Music","Word","notches",1,926,1153,47,247
"848",603,"NZ","Music","Word","knowledge",1,978,926,48,248
"849",603,"NZ","Music","Word","largest",1,918,978,49,249
"850",603,"NZ","Music","Nonword","kearthly",1,853,918,50,250
"851",603,"NZ","Silence","Nonword","gurky",1,1058,994,1,251
"852",603,"NZ","Silence","Word","sausage",1,944,1058,2,252
"853",603,"NZ","Silence","Word","planting",1,868,944,3,253
"854",603,"NZ","Silence","Word","drafting",1,980,868,4,254
"855",603,"NZ","Silence","Nonword","soating",1,1179,980,5,255
"856",603,"NZ","Silence","Nonword","zornet",1,911,1179,6,256
"857",603,"NZ","Silence","Word","charming",1,897,911,7,257
"858",603,"NZ","Silence","Nonword","carching",1,951,897,8,258
"859",603,"NZ","Silence","Word","coping",1,857,951,9,259
"860",603,"NZ","Silence","Nonword","groledge",1,805,857,10,260
"861",603,"NZ","Silence","Nonword","frodgen",1,857,805,11,261
"862",603,"NZ","Silence","Word","curtain",1,1030,857,12,262
"863",603,"NZ","Silence","Word","worsen",1,913,1030,13,263
"864",603,"NZ","Silence","Nonword","choathy",1,866,913,14,264
"865",603,"NZ","Silence","Nonword","snarfen",1,1295,866,15,265
"866",603,"NZ","Silence","Word","garnet",1,1160,1295,16,266
"867",603,"NZ","Silence","Nonword","soffice",1,1266,1160,17,267
"868",603,"NZ","Silence","Word","poky",1,1497,1266,18,268
"869",603,"NZ","Silence","Word","offer",1,924,1497,19,269
"870",603,"NZ","Silence","Word","gotten",1,875,924,20,270
"871",603,"NZ","Silence","Word","poaching",1,958,875,21,271
"872",603,"NZ","Silence","Word","market",1,990,958,22,272
"873",603,"NZ","Silence","Nonword","zarmest",1,834,990,23,273
"874",603,"NZ","Silence","Word","garden",1,777,834,24,274
"875",603,"NZ","Silence","Word","hoping",1,1080,777,25,275
"876",603,"NZ","Silence","Word","dancing",1,914,1080,26,276
"877",603,"NZ","Silence","Nonword","sorpoise",1,1088,914,27,277
"878",603,"NZ","Silence","Word","sharpen",1,885,1088,28,278
"879",603,"NZ","Silence","Nonword","broaded",1,952,885,29,279
"880",603,"NZ","Silence","Nonword","spasking",1,1040,952,30,280
"881",603,"NZ","Silence","Word","crafting",1,801,1040,31,281
"882",603,"NZ","Silence","Nonword","talving",1,879,801,32,282
"883",603,"NZ","Silence","Nonword","plasses",1,1114,879,33,283
"884",603,"NZ","Silence","Word","gasping",1,795,1114,34,284
"885",603,"NZ","Silence","Nonword","eargy",1,755,795,35,285
"886",603,"NZ","Silence","Word","thorny",1,864,755,36,286
"887",603,"NZ","Silence","Nonword","verlip",1,824,864,37,287
"888",603,"NZ","Silence","Word","starving",1,739,824,38,288
"889",603,"NZ","Silence","Word","lonely",1,966,739,39,289
"890",603,"NZ","Silence","Nonword","purney",1,800,966,40,290
"891",603,"NZ","Silence","Nonword","croating",1,987,800,41,291
"892",603,"NZ","Silence","Word","crosses",1,971,987,42,292
"893",603,"NZ","Silence","Nonword","chodges",1,960,971,43,293
"894",603,"NZ","Silence","Word","mortal",1,1034,960,44,294
"895",603,"NZ","Silence","Nonword","stanches",1,1183,1034,45,295
"896",603,"NZ","Silence","Nonword","plancis",1,926,1183,46,296
"897",603,"NZ","Silence","Nonword","clarny",1,822,926,47,297
"898",603,"NZ","Silence","Nonword","varsen",0,1857,822,48,298
"899",603,"NZ","Silence","Word","brothel",1,849,1857,49,299
"900",603,"NZ","Silence","Nonword","smoby",1,869,849,50,300
"901",604,"US","Noise","Nonword","gloffle",1,1457,994,1,1
"902",604,"US","Noise","Word","portal",1,968,1457,2,2
"903",604,"US","Noise","Nonword","barvet",0,1055,968,3,3
"904",604,"US","Noise","Nonword","stanches",1,1745,1055,4,4
"905",604,"US","Noise","Word","often",1,914,1745,5,5
"906",604,"US","Noise","Nonword","shoated",1,1092,914,6,6
"907",604,"US","Noise","Word","phoning",1,1147,1092,7,7
"908",604,"US","Noise","Nonword","smoated",1,1227,1147,8,8
"909",604,"US","Noise","Word","loaded",1,693,1227,9,9
"910",604,"US","Noise","Word","corpus",1,1085,693,10,10
"911",604,"US","Noise","Word","parting",1,1307,1085,11,11
"912",604,"US","Noise","Word","curtain",1,856,1307,12,12
"913",604,"US","Noise","Nonword","troaky",0,1287,856,13,13
"914",604,"US","Noise","Nonword","bozes",1,1009,1287,14,14
"915",604,"US","Noise","Nonword","chodded",1,976,1009,15,15
"916",604,"US","Noise","Word","coping",1,723,976,16,16
"917",604,"US","Noise","Word","boxes",1,800,723,17,17
"918",604,"US","Noise","Nonword","chorget",0,1085,800,18,18
"919",604,"US","Noise","Nonword","smoby",1,1086,1085,19,19
"920",604,"US","Noise","Word","crosses",1,1079,1086,20,20
"921",604,"US","Noise","Word","masking",1,882,1079,21,21
"922",604,"US","Noise","Nonword","chormel",1,1678,882,22,22
"923",604,"US","Noise","Word","arty",1,1280,1678,23,23
"924",604,"US","Noise","Nonword","purney",1,1270,1280,24,24
"925",604,"US","Noise","Nonword","fasking",0,1078,1270,25,25
"926",604,"US","Noise","Word","normal",1,717,1078,26,26
"927",604,"US","Noise","Word","burden",1,941,717,27,27
"928",604,"US","Noise","Word","hoarding",1,968,941,28,28
"929",604,"US","Noise","Word","classes",1,1269,968,29,29
"930",604,"US","Noise","Nonword","bloppy",0,917,1269,30,30
"931",604,"US","Noise","Word","worsen",1,976,917,31,31
"932",604,"US","Noise","Nonword","praffing",1,909,976,32,32
"933",604,"US","Noise","Nonword","fample",1,1562,909,33,33
"934",604,"US","Noise","Nonword","frodgen",1,1154,1562,34,34
"935",604,"US","Noise","Word","stopping",1,847,1154,35,35
"936",604,"US","Noise","Word","gasping",1,800,847,36,36
"937",604,"US","Noise","Nonword","vorden",0,1525,800,37,37
"938",604,"US","Noise","Nonword","pranted",0,1249,1525,38,38
"939",604,"US","Noise","Nonword","mernel",1,876,1249,39,39
"940",604,"US","Noise","Nonword","plarsy",1,970,876,40,40
"941",604,"US","Noise","Nonword","morbing",1,1240,970,41,41
"942",604,"US","Noise","Word","coffin",1,781,1240,42,42
"943",604,"US","Noise","Word","thorny",0,989,781,43,43
"944",604,"US","Noise","Word","foster",1,1004,989,44,44
"945",604,"US","Noise","Word","granted",1,848,1004,45,45
"946",604,"US","Noise","Word","forty",0,1090,848,46,46
"947",604,"US","Noise","Nonword","sorpoise",1,1136,1090,47,47
"948",604,"US","Noise","Nonword","chodges",0,1101,1136,48,48
"949",604,"US","Noise","Word","laughing",1,864,1101,49,49
"950",604,"US","Noise","Nonword","foaping",1,1070,864,50,50
"951",604,"US","Silence","Nonword","twokker",1,1117,994,1,51
"952",604,"US","Silence","Word","cosy",1,718,1117,2,52
"953",604,"US","Silence","Word","woven",1,852,718,3,53
"954",604,"US","Silence","Nonword","vording",1,1026,852,4,54
"955",604,"US","Silence","Nonword","zornet",1,990,1026,5,55
"956",604,"US","Silence","Nonword","choathy",1,991,990,6,56
"957",604,"US","Silence","Nonword","zirty",1,1096,991,7,57
"958",604,"US","Silence","Word","harpist",0,1216,1096,8,58
"959",604,"US","Silence","Nonword","wancet",0,1002,1216,9,59
"960",604,"US","Silence","Nonword","broaded",1,1090,1002,10,60
"961",604,"US","Silence","Word","dirty",1,841,1090,11,61
"962",604,"US","Silence","Word","fasting",1,926,841,12,62
"963",604,"US","Silence","Nonword","zarden",1,889,926,13,63
"964",604,"US","Silence","Word","charming",1,879,889,14,64
"965",604,"US","Silence","Nonword","saffing",1,962,879,15,65
"966",604,"US","Silence","Word","washing",1,662,962,16,66
"967",604,"US","Silence","Nonword","twoppy",1,949,662,17,67
"968",604,"US","Silence","Word","clothing",1,622,949,18,68
"969",604,"US","Silence","Word","warning",1,888,622,19,69
"970",604,"US","Silence","Word","shorten",1,839,888,20,70
"971",604,"US","Silence","Nonword","eargy",1,951,839,21,71
"972",604,"US","Silence","Nonword","safting",1,863,951,22,72
"973",604,"US","Silence","Word","certain",1,1206,863,23,73
"974",604,"US","Silence","Word","lonely",1,718,1206,24,74
"975",604,"US","Silence","Word","grasping",1,860,718,25,75
"976",604,"US","Silence","Word","losses",1,956,860,26,76
"977",604,"US","Silence","Nonword","tarma",1,812,956,27,77
"978",604,"US","Silence","Nonword","ploguing",1,936,812,28,78
"979",604,"US","Silence","Nonword","varsen",1,1026,936,29,79
"980",604,"US","Silence","Nonword","flonger",1,886,1026,30,80
"981",604,"US","Silence","Word","harming",1,860,886,31,81
"982",604,"US","Silence","Word","offer",1,761,860,32,82
"983",604,"US","Silence","Nonword","narshing",1,993,761,33,83
"984",604,"US","Silence","Word","porpoise",1,747,993,34,84
"985",604,"US","Silence","Word","smoky",1,808,747,35,85
"986",604,"US","Silence","Word","sample",1,905,808,36,86
"987",604,"US","Silence","Nonword","hasket",0,1297,905,37,87
"988",604,"US","Silence","Word","soapy",1,881,1297,38,88
"989",604,"US","Silence","Word","lancet",0,999,881,39,89
"990",604,"US","Silence","Word","noted",1,970,999,40,90
"991",604,"US","Silence","Nonword","fosted",1,943,970,41,91
"992",604,"US","Silence","Nonword","dastness",1,943,943,42,92
"993",604,"US","Silence","Word","poky",1,650,943,43,93
"994",604,"US","Silence","Nonword","sprollen",1,1727,650,44,94
"995",604,"US","Silence","Nonword","woney",1,1300,1727,45,95
"996",604,"US","Silence","Word","basket",1,811,1300,46,96
"997",604,"US","Silence","Nonword","stasking",1,1056,811,47,97
"998",604,"US","Silence","Word","clasping",0,795,1056,48,98
"999",604,"US","Silence","Nonword","koble",1,934,795,49,99
"1000",604,"US","Silence","Nonword","wothing",1,831,934,50,100
"1001",604,"US","Music","Nonword","masty",1,1277,994,1,101
"1002",604,"US","Music","Word","orbit",1,1085,1277,2,102
"1003",604,"US","Music","Nonword","banches",1,1003,1085,3,103
"1004",604,"US","Music","Word","token",1,924,1003,4,104
"1005",604,"US","Music","Word","poaching",1,820,924,5,105
"1006",604,"US","Music","Word","largest",1,950,820,6,106
"1007",604,"US","Music","Nonword","eardest",1,991,950,7,107
"1008",604,"US","Music","Nonword","zarchet",1,874,991,8,108
"1009",604,"US","Music","Nonword","gasking",1,958,874,9,109
"1010",604,"US","Music","Nonword","broaming",1,1142,958,10,110
"1011",604,"US","Music","Nonword","tanches",1,911,1142,11,111
"1012",604,"US","Music","Word","warden",1,991,911,12,112
"1013",604,"US","Music","Nonword","gorrow",1,1008,991,13,113
"1014",604,"US","Music","Word","earthly",1,928,1008,14,114
"1015",604,"US","Music","Nonword","sasten",0,1374,928,15,115
"1016",604,"US","Music","Nonword","charvist",1,1004,1374,16,116
"1017",604,"US","Music","Word","sharpen",1,819,1004,17,117
"1018",604,"US","Music","Word","gotten",1,1018,819,18,118
"1019",604,"US","Music","Word","rotten",1,596,1018,19,119
"1020",604,"US","Music","Word","stronger",1,752,596,20,120
"1021",604,"US","Music","Word","casket",1,660,752,21,121
"1022",604,"US","Music","Nonword","lorcet",1,1148,660,22,122
"1023",604,"US","Music","Word","costly",1,1006,1148,23,123
"1024",604,"US","Music","Nonword","garning",1,1062,1006,24,124
"1025",604,"US","Music","Nonword","splaffing",1,854,1062,25,125
"1026",604,"US","Music","Word","posted",1,679,854,26,126
"1027",604,"US","Music","Word","roses",1,1055,679,27,127
"1028",604,"US","Music","Word","coffee",1,746,1055,28,128
"1029",604,"US","Music","Nonword","ormet",1,1070,746,29,129
"1030",604,"US","Music","Word","sorrow",1,869,1070,30,130
"1031",604,"US","Music","Word","hornet",1,807,869,31,131
"1032",604,"US","Music","Nonword","roaning",1,1245,807,32,132
"1033",604,"US","Music","Nonword","skorking",0,1372,1245,33,133
"1034",604,"US","Music","Nonword","thoffit",1,991,1372,34,134
"1035",604,"US","Music","Nonword","prasses",0,856,991,35,135
"1036",604,"US","Music","Word","journey",1,773,856,36,136
"1037",604,"US","Music","Nonword","groledge",1,1064,773,37,137
"1038",604,"US","Music","Nonword","sarnel",1,837,1064,38,138
"1039",604,"US","Music","Nonword","hargy",1,1137,837,39,139
"1040",604,"US","Music","Word","glasses",1,1016,1137,40,140
"1041",604,"US","Music","Word","hoping",1,688,1016,41,141
"1042",604,"US","Music","Word","clotted",1,622,688,42,142
"1043",604,"US","Music","Nonword","foting",0,1259,622,43,143
"1044",604,"US","Music","Word","casting",1,1030,1259,44,144
"1045",604,"US","Music","Word","pardon",1,810,1030,45,145
"1046",604,"US","Music","Nonword","furden",1,956,810,46,146
"1047",604,"US","Music","Nonword","brancing",1,1006,956,47,147
"1048",604,"US","Music","Word","drafting",1,683,1006,48,148
"1049",604,"US","Music","Nonword","florcen",1,989,683,49,149
"1050",604,"US","Music","Word","profit",0,962,989,50,150
"1051",604,"NZ","Noise","Nonword","smophy",1,1298,994,1,151
"1052",604,"NZ","Noise","Word","morning",1,782,1298,2,152
"1053",604,"NZ","Noise","Word","sausage",1,670,782,3,153
"1054",604,"NZ","Noise","Word","boating",1,660,670,4,154
"1055",604,"NZ","Noise","Nonword","gronest",1,809,660,5,155
"1056",604,"NZ","Noise","Nonword","fodding",0,1332,809,6,156
"1057",604,"NZ","Noise","Word","market",1,844,1332,7,157
"1058",604,"NZ","Noise","Word","notches",0,996,844,8,158
"1059",604,"NZ","Noise","Nonword","morgeous",1,1006,996,9,159
"1060",604,"NZ","Noise","Nonword","spoaming",1,939,1006,10,160
"1061",604,"NZ","Noise","Nonword","dassing",1,956,939,11,161
"1062",604,"NZ","Noise","Word","floating",1,820,956,12,162
"1063",604,"NZ","Noise","Word","party",1,1071,820,13,163
"1064",604,"NZ","Noise","Word","sporty",1,780,1071,14,164
"1065",604,"NZ","Noise","Word","slotting",1,921,780,15,165
"1066",604,"NZ","Noise","Nonword","poven",1,1102,921,16,166
"1067",604,"NZ","Noise","Nonword","swoded",1,990,1102,17,167
"1068",604,"NZ","Noise","Word","blasting",1,816,990,18,168
"1069",604,"NZ","Noise","Nonword","dwotten",1,1019,816,19,169
"1070",604,"NZ","Noise","Nonword","furning",0,1039,1019,20,170
"1071",604,"NZ","Noise","Word","arming",1,920,1039,21,171
"1072",604,"NZ","Noise","Word","journal",1,979,920,22,172
"1073",604,"NZ","Noise","Word","yearning",1,827,979,23,173
"1074",604,"NZ","Noise","Word","garden",1,845,827,24,174
"1075",604,"NZ","Noise","Word","cornet",1,649,845,25,175
"1076",604,"NZ","Noise","Word","sorry",1,844,649,26,176
"1077",604,"NZ","Noise","Nonword","modging",1,1005,844,27,177
"1078",604,"NZ","Noise","Word","kernel",1,713,1005,28,178
"1079",604,"NZ","Noise","Word","lasted",1,790,713,29,179
"1080",604,"NZ","Noise","Nonword","groating",1,943,790,30,180
"1081",604,"NZ","Noise","Word","karma",1,823,943,31,181
"1082",604,"NZ","Noise","Word","prodded",0,1056,823,32,182
"1083",604,"NZ","Noise","Nonword","talving",1,1009,1056,33,183
"1084",604,"NZ","Noise","Nonword","plorset",1,955,1009,34,184
"1085",604,"NZ","Noise","Nonword","kearthly",1,963,955,35,185
"1086",604,"NZ","Noise","Nonword","kosken",1,966,963,36,186
"1087",604,"NZ","Noise","Nonword","shormet",1,1494,966,37,187
"1088",604,"NZ","Noise","Nonword","frobing",1,792,1494,38,188
"1089",604,"NZ","Noise","Word","bloated",1,732,792,39,189
"1090",604,"NZ","Noise","Nonword","thwabble",1,1271,732,40,190
"1091",604,"NZ","Noise","Nonword","spasking",1,995,1271,41,191
"1092",604,"NZ","Noise","Word","longing",1,978,995,42,192
"1093",604,"NZ","Noise","Word","passing",1,929,978,43,193
"1094",604,"NZ","Noise","Nonword","dorty",1,1068,929,44,194
"1095",604,"NZ","Noise","Nonword","donely",1,1253,1068,45,195
"1096",604,"NZ","Noise","Nonword","zancing",0,1301,1253,46,196
"1097",604,"NZ","Noise","Nonword","kirty",1,2085,1301,47,197
"1098",604,"NZ","Noise","Word","branches",1,700,2085,48,198
"1099",604,"NZ","Noise","Word","asking",1,818,700,49,199
"1100",604,"NZ","Noise","Nonword","garking",1,924,818,50,200
"1101",604,"NZ","Silence","Nonword","clarny",0,1766,994,1,201
"1102",604,"NZ","Silence","Nonword","sposses",1,1017,1766,2,202
"1103",604,"NZ","Silence","Nonword","snarfen",1,829,1017,3,203
"1104",604,"NZ","Silence","Nonword","thoving",1,836,829,4,204
"1105",604,"NZ","Silence","Word","office",1,833,836,5,205
"1106",604,"NZ","Silence","Word","hearty",1,876,833,6,206
"1107",604,"NZ","Silence","Word","roading",0,1260,876,7,207
"1108",604,"NZ","Silence","Word","frozen",1,1104,1260,8,208
"1109",604,"NZ","Silence","Word","hosting",1,768,1104,9,209
"1110",604,"NZ","Silence","Word","coughing",1,716,768,10,210
"1111",604,"NZ","Silence","Nonword","mozing",1,934,716,11,211
"1112",604,"NZ","Silence","Nonword","shorkel",1,957,934,12,212
"1113",604,"NZ","Silence","Nonword","zearning",1,892,957,13,213
"1114",604,"NZ","Silence","Word","organ",1,1255,892,14,214
"1115",604,"NZ","Silence","Word","perfect",1,739,1255,15,215
"1116",604,"NZ","Silence","Nonword","carching",1,973,739,16,216
"1117",604,"NZ","Silence","Word","broken",1,733,973,17,217
"1118",604,"NZ","Silence","Word","squabble",1,960,733,18,218
"1119",604,"NZ","Silence","Word","fasten",1,757,960,19,219
"1120",604,"NZ","Silence","Word","noble",1,804,757,20,220
"1121",604,"NZ","Silence","Word","prancing",1,972,804,21,221
"1122",604,"NZ","Silence","Nonword","purnel",0,986,972,22,222
"1123",604,"NZ","Silence","Word","burning",1,958,986,23,223
"1124",604,"NZ","Silence","Nonword","swonches",1,941,958,24,224
"1125",604,"NZ","Silence","Nonword","glarshest",1,1001,941,25,225
"1126",604,"NZ","Silence","Nonword","sersect",1,1185,1001,26,226
"1127",604,"NZ","Silence","Word","crafting",1,921,1185,27,227
"1128",604,"NZ","Silence","Nonword","ortal",0,937,921,28,228
"1129",604,"NZ","Silence","Nonword","fozen",1,997,937,29,229
"1130",604,"NZ","Silence","Nonword","obbin",1,946,997,30,230
"1131",604,"NZ","Silence","Word","planting",1,1284,946,31,231
"1132",604,"NZ","Silence","Nonword","verlip",1,1013,1284,32,232
"1133",604,"NZ","Silence","Word","carving",1,860,1013,33,233
"1134",604,"NZ","Silence","Nonword","broselet",1,956,860,34,234
"1135",604,"NZ","Silence","Nonword","soffice",1,1215,956,35,235
"1136",604,"NZ","Silence","Word","person",1,661,1215,36,236
"1137",604,"NZ","Silence","Word","partial",1,814,661,37,237
"1138",604,"NZ","Silence","Nonword","pasking",1,876,814,38,238
"1139",604,"NZ","Silence","Nonword","prothy",0,840,876,39,239
"1140",604,"NZ","Silence","Word","dancing",1,750,840,40,240
"1141",604,"NZ","Silence","Nonword","vertain",1,1188,750,41,241
"1142",604,"NZ","Silence","Nonword","gurky",1,1021,1188,42,242
"1143",604,"NZ","Silence","Nonword","lasket",1,1077,1021,43,243
"1144",604,"NZ","Silence","Word","ocean",1,870,1077,44,244
"1145",604,"NZ","Silence","Nonword","zasking",1,1216,870,45,245
"1146",604,"NZ","Silence","Word","sharpest",1,960,1216,46,246
"1147",604,"NZ","Silence","Word","flirty",1,743,960,47,247
"1148",604,"NZ","Silence","Nonword","yormal",1,867,743,48,248
"1149",604,"NZ","Silence","Word","soften",1,754,867,49,249
"1150",604,"NZ","Silence","Word","shafting",1,1122,754,50,250
"1151",604,"NZ","Music","Nonword","hoaken",1,807,994,1,251
"1152",604,"NZ","Music","Word","mortal",1,1000,807,2,252
"1153",604,"NZ","Music","Nonword","dronchel",1,860,1000,3,253
"1154",604,"NZ","Music","Word","doting",1,1161,860,4,254
"1155",604,"NZ","Music","Nonword","zarmest",1,765,1161,5,255
"1156",604,"NZ","Music","Word","trophy",1,744,765,6,256
"1157",604,"NZ","Music","Nonword","frozzy",1,775,744,7,257
"1158",604,"NZ","Music","Word","oaky",1,1324,775,8,258
"1159",604,"NZ","Music","Word","formal",1,969,1324,9,259
"1160",604,"NZ","Music","Nonword","parshing",1,943,969,10,260
"1161",604,"NZ","Music","Word","portrait",1,882,943,11,261
"1162",604,"NZ","Music","Nonword","dasping",1,987,882,12,262
"1163",604,"NZ","Music","Nonword","croating",1,890,987,13,263
"1164",604,"NZ","Music","Nonword","snurchen",1,950,890,14,264
"1165",604,"NZ","Music","Word","waffle",1,818,950,15,265
"1166",604,"NZ","Music","Word","brothel",1,765,818,16,266
"1167",604,"NZ","Music","Word","spoken",0,887,765,17,267
"1168",604,"NZ","Music","Nonword","blerking",1,927,887,18,268
"1169",604,"NZ","Music","Nonword","tharving",1,1146,927,19,269
"1170",604,"NZ","Music","Nonword","zotted",1,888,1146,20,270
"1171",604,"NZ","Music","Word","knowledge",1,1070,888,21,271
"1172",604,"NZ","Music","Word","early",1,798,1070,22,272
"1173",604,"NZ","Music","Word","woken",1,799,798,23,273
"1174",604,"NZ","Music","Word","earnest",1,790,799,24,274
"1175",604,"NZ","Music","Nonword","varling",1,937,790,25,275
"1176",604,"NZ","Music","Nonword","zoting",1,1484,937,26,276
"1177",604,"NZ","Music","Nonword","varpon",1,832,1484,27,277
"1178",604,"NZ","Music","Word","staffing",1,1013,832,28,278
"1179",604,"NZ","Music","Word","rafting",1,960,1013,29,279
"1180",604,"NZ","Music","Nonword","zosses",1,778,960,30,280
"1181",604,"NZ","Music","Nonword","plancis",1,1502,778,31,281
"1182",604,"NZ","Music","Nonword","rozzing",1,809,1502,32,282
"1183",604,"NZ","Music","Word","chanting",1,1013,809,33,283
"1184",604,"NZ","Music","Nonword","ploxes",0,838,1013,34,284
"1185",604,"NZ","Music","Word","stances",1,754,838,35,285
"1186",604,"NZ","Music","Nonword","soating",1,1223,754,36,286
"1187",604,"NZ","Music","Word","garnet",1,687,1223,37,287
"1188",604,"NZ","Music","Word","starving",1,716,687,38,288
"1189",604,"NZ","Music","Nonword","yoster",1,794,716,39,289
"1190",604,"NZ","Music","Word","slanted",1,767,794,40,290
"1191",604,"NZ","Music","Nonword","plasses",1,981,767,41,291
"1192",604,"NZ","Music","Word","soaking",1,780,981,42,292
"1193",604,"NZ","Music","Nonword","korty",1,1104,780,43,293
"1194",604,"NZ","Music","Word","thirty",1,747,1104,44,294
"1195",604,"NZ","Music","Nonword","blanting",0,1088,747,45,295
"1196",604,"NZ","Music","Nonword","boapy",1,695,1088,46,296
"1197",604,"NZ","Music","Nonword","blassing",1,1107,695,47,297
"1198",604,"NZ","Music","Word","farming",1,946,1107,48,298
"1199",604,"NZ","Music","Word","harden",1,1196,946,49,299
"1200",604,"NZ","Music","Word","quarry",1,1006,1196,50,300
"1201",606,"US","Silence","Word","hosting",1,1293,994,1,1
"1202",606,"US","Silence","Word","rotten",1,932,1293,2,2
"1203",606,"US","Silence","Nonword","varpon",1,1843,932,3,3
"1204",606,"US","Silence","Nonword","pasking",1,1730,1843,4,4
"1205",606,"US","Silence","Nonword","splaffing",1,1652,1730,5,5
"1206",606,"US","Silence","Word","clotted",1,1185,1652,6,6
"1207",606,"US","Silence","Word","journal",1,882,1185,7,7
"1208",606,"US","Silence","Nonword","talving",1,1735,882,8,8
"1209",606,"US","Silence","Word","worsen",1,2041,1735,9,9
"1210",606,"US","Silence","Word","harpist",0,1570,2041,10,10
"1211",606,"US","Silence","Nonword","stanches",1,2190,1570,11,11
"1212",606,"US","Silence","Nonword","tarma",1,1225,2190,12,12
"1213",606,"US","Silence","Nonword","soating",1,2148,1225,13,13
"1214",606,"US","Silence","Word","losses",1,1227,2148,14,14
"1215",606,"US","Silence","Word","thorny",1,1286,1227,15,15
"1216",606,"US","Silence","Word","coffee",1,733,1286,16,16
"1217",606,"US","Silence","Nonword","eargy",1,1134,733,17,17
"1218",606,"US","Silence","Nonword","korty",1,1222,1134,18,18
"1219",606,"US","Silence","Word","kernel",1,1298,1222,19,19
"1220",606,"US","Silence","Word","notches",1,1204,1298,20,20
"1221",606,"US","Silence","Nonword","morbing",1,1776,1204,21,21
"1222",606,"US","Silence","Nonword","bloppy",0,1505,1776,22,22
"1223",606,"US","Silence","Nonword","broaming",1,1403,1505,23,23
"1224",606,"US","Silence","Word","token",1,790,1403,24,24
"1225",606,"US","Silence","Nonword","brancing",1,980,790,25,25
"1226",606,"US","Silence","Word","classes",1,949,980,26,26
"1227",606,"US","Silence","Word","costly",1,1064,949,27,27
"1228",606,"US","Silence","Nonword","wancet",0,814,1064,28,28
"1229",606,"US","Silence","Word","shafting",1,973,814,29,29
"1230",606,"US","Silence","Word","gasping",1,1067,973,30,30
"1231",606,"US","Silence","Nonword","swoded",1,1278,1067,31,31
"1232",606,"US","Silence","Nonword","boapy",1,869,1278,32,32
"1233",606,"US","Silence","Word","poaching",1,774,869,33,33
"1234",606,"US","Silence","Word","garnet",0,1207,774,34,34
"1235",606,"US","Silence","Word","noted",1,963,1207,35,35
"1236",606,"US","Silence","Nonword","rozzing",1,1117,963,36,36
"1237",606,"US","Silence","Nonword","soffice",1,1203,1117,37,37
"1238",606,"US","Silence","Nonword","foting",1,1878,1203,38,38
"1239",606,"US","Silence","Word","loaded",1,846,1878,39,39
"1240",606,"US","Silence","Nonword","troaky",1,1023,846,40,40
"1241",606,"US","Silence","Word","washing",1,816,1023,41,41
"1242",606,"US","Silence","Word","planting",1,966,816,42,42
"1243",606,"US","Silence","Word","person",1,1479,966,43,43
"1244",606,"US","Silence","Nonword","zearning",1,1402,1479,44,44
"1245",606,"US","Silence","Nonword","snarfen",1,1122,1402,45,45
"1246",606,"US","Silence","Word","hornet",1,893,1122,46,46
"1247",606,"US","Silence","Word","broken",1,1176,893,47,47
"1248",606,"US","Silence","Nonword","sersect",1,1507,1176,48,48
"1249",606,"US","Silence","Nonword","vording",1,1221,1507,49,49
"1250",606,"US","Silence","Nonword","groledge",1,1089,1221,50,50
"1251",606,"US","Noise","Word","thirty",1,1515,994,1,51
"1252",606,"US","Noise","Nonword","tharving",0,1486,1515,2,52
"1253",606,"US","Noise","Nonword","safting",1,1481,1486,3,53
"1254",606,"US","Noise","Nonword","sarnel",1,1212,1481,4,54
"1255",606,"US","Noise","Word","arty",0,982,1212,5,55
"1256",606,"US","Noise","Word","grasping",1,851,982,6,56
"1257",606,"US","Noise","Word","soapy",1,1185,851,7,57
"1258",606,"US","Noise","Word","masking",1,1138,1185,8,58
"1259",606,"US","Noise","Word","portal",1,1012,1138,9,59
"1260",606,"US","Noise","Word","staffing",1,1087,1012,10,60
"1261",606,"US","Noise","Word","warning",1,1284,1087,11,61
"1262",606,"US","Noise","Word","garden",1,951,1284,12,62
"1263",606,"US","Noise","Word","lonely",1,863,951,13,63
"1264",606,"US","Noise","Word","often",1,1149,863,14,64
"1265",606,"US","Noise","Nonword","zarmest",1,1337,1149,15,65
"1266",606,"US","Noise","Nonword","sasten",1,2033,1337,16,66
"1267",606,"US","Noise","Nonword","gurky",1,1117,2033,17,67
"1268",606,"US","Noise","Nonword","glarshest",1,891,1117,18,68
"1269",606,"US","Noise","Nonword","frobing",0,1607,891,19,69
"1270",606,"US","Noise","Word","slanted",1,1861,1607,20,70
"1271",606,"US","Noise","Word","sausage",1,1178,1861,21,71
"1272",606,"US","Noise","Nonword","zarchet",1,972,1178,22,72
"1273",606,"US","Noise","Word","flirty",0,1879,972,23,73
"1274",606,"US","Noise","Nonword","zirty",1,1405,1879,24,74
"1275",606,"US","Noise","Word","woven",1,1419,1405,25,75
"1276",606,"US","Noise","Word","organ",1,1221,1419,26,76
"1277",606,"US","Noise","Nonword","roaning",1,1282,1221,27,77
"1278",606,"US","Noise","Word","sorrow",0,1794,1282,28,78
"1279",606,"US","Noise","Nonword","dwotten",1,1086,1794,29,79
"1280",606,"US","Noise","Word","forty",0,0,1086,30,80
"1281",606,"US","Noise","Word","glasses",1,1305,994,31,81
"1282",606,"US","Noise","Word","posted",1,1143,1305,32,82
"1283",606,"US","Noise","Nonword","spasking",1,2385,1143,33,83
"1284",606,"US","Noise","Nonword","garking",0,1044,2385,34,84
"1285",606,"US","Noise","Word","spoken",1,1431,1044,35,85
"1286",606,"US","Noise","Nonword","thoffit",1,1002,1431,36,86
"1287",606,"US","Noise","Nonword","banches",1,1696,1002,37,87
"1288",606,"US","Noise","Word","stronger",1,1056,1696,38,88
"1289",606,"US","Noise","Nonword","snurchen",1,951,1056,39,89
"1290",606,"US","Noise","Nonword","chodges",1,978,951,40,90
"1291",606,"US","Noise","Word","ocean",1,640,978,41,91
"1292",606,"US","Noise","Word","boating",1,1375,640,42,92
"1293",606,"US","Noise","Nonword","hargy",1,1375,1375,43,93
"1294",606,"US","Noise","Nonword","zosses",1,894,1375,44,94
"1295",606,"US","Noise","Nonword","ormet",1,1227,894,45,95
"1296",606,"US","Noise","Word","curtain",1,1768,1227,46,96
"1297",606,"US","Noise","Nonword","hasket",1,1305,1768,47,97
"1298",606,"US","Noise","Nonword","groating",1,1558,1305,48,98
"1299",606,"US","Noise","Nonword","kearthly",1,1593,1558,49,99
"1300",606,"US","Noise","Nonword","stasking",1,2098,1593,50,100
"1301",606,"US","Music","Word","journey",1,1525,994,1,101
"1302",606,"US","Music","Word","fasting",1,949,1525,2,102
"1303",606,"US","Music","Word","warden",1,1003,949,3,103
"1304",606,"US","Music","Word","coughing",1,694,1003,4,104
"1305",606,"US","Music","Word","market",1,841,694,5,105
"1306",606,"US","Music","Nonword","furden",1,1277,841,6,106
"1307",606,"US","Music","Nonword","yoster",1,1870,1277,7,107
"1308",606,"US","Music","Nonword","spoaming",1,990,1870,8,108
"1309",606,"US","Music","Nonword","kosken",1,1134,990,9,109
"1310",606,"US","Music","Word","soaking",1,906,1134,10,110
"1311",606,"US","Music","Nonword","broselet",1,1574,906,11,111
"1312",606,"US","Music","Word","hearty",0,966,1574,12,112
"1313",606,"US","Music","Word","lasted",1,1040,966,13,113
"1314",606,"US","Music","Word","mortal",1,971,1040,14,114
"1315",606,"US","Music","Nonword","plorset",1,1378,971,15,115
"1316",606,"US","Music","Word","clasping",1,1081,1378,16,116
"1317",606,"US","Music","Word","roading",0,0,1081,17,117
"1318",606,"US","Music","Word","partial",1,1813,994,18,118
"1319",606,"US","Music","Nonword","furning",1,1291,1813,19,119
"1320",606,"US","Music","Nonword","sposses",1,1831,1291,20,120
"1321",606,"US","Music","Nonword","swonches",1,1043,1831,21,121
"1322",606,"US","Music","Nonword","narshing",1,1538,1043,22,122
"1323",606,"US","Music","Nonword","zotted",0,1082,1538,23,123
"1324",606,"US","Music","Word","crafting",1,901,1082,24,124
"1325",606,"US","Music","Nonword","fasking",1,1031,901,25,125
"1326",606,"US","Music","Nonword","flonger",1,939,1031,26,126
"1327",606,"US","Music","Nonword","morgeous",1,1018,939,27,127
"1328",606,"US","Music","Nonword","dasping",1,1059,1018,28,128
"1329",606,"US","Music","Nonword","fodding",0,1905,1059,29,129
"1330",606,"US","Music","Word","sample",1,930,1905,30,130
"1331",606,"US","Music","Word","woken",1,985,930,31,131
"1332",606,"US","Music","Nonword","plarsy",1,1502,985,32,132
"1333",606,"US","Music","Word","squabble",1,1375,1502,33,133
"1334",606,"US","Music","Nonword","frodgen",0,0,1375,34,134
"1335",606,"US","Music","Word","formal",1,1048,994,35,135
"1336",606,"US","Music","Nonword","varling",1,862,1048,36,136
"1337",606,"US","Music","Word","certain",1,685,862,37,137
"1338",606,"US","Music","Nonword","clarny",1,976,685,38,138
"1339",606,"US","Music","Nonword","poven",1,944,976,39,139
"1340",606,"US","Music","Nonword","croating",1,1331,944,40,140
"1341",606,"US","Music","Word","longing",1,1126,1331,41,141
"1342",606,"US","Music","Word","hoping",1,835,1126,42,142
"1343",606,"US","Music","Word","earthly",1,1563,835,43,143
"1344",606,"US","Music","Nonword","fosted",1,1346,1563,44,144
"1345",606,"US","Music","Nonword","ploxes",1,1057,1346,45,145
"1346",606,"US","Music","Word","floating",1,1232,1057,46,146
"1347",606,"US","Music","Word","cornet",0,1134,1232,47,147
"1348",606,"US","Music","Word","office",1,887,1134,48,148
"1349",606,"US","Music","Nonword","pranted",1,990,887,49,149
"1350",606,"US","Music","Word","largest",1,1036,990,50,150
"1351",606,"NZ","Silence","Word","trophy",1,1052,994,1,151
"1352",606,"NZ","Silence","Word","casting",1,902,1052,2,152
"1353",606,"NZ","Silence","Nonword","hoaken",1,920,902,3,153
"1354",606,"NZ","Silence","Word","karma",1,823,920,4,154
"1355",606,"NZ","Silence","Word","basket",1,756,823,5,155
"1356",606,"NZ","Silence","Word","roses",1,1121,756,6,156
"1357",606,"NZ","Silence","Word","asking",1,788,1121,7,157
"1358",606,"NZ","Silence","Nonword","zornet",1,942,788,8,158
"1359",606,"NZ","Silence","Word","charming",1,971,942,9,159
"1360",606,"NZ","Silence","Word","sporty",1,1136,971,10,160
"1361",606,"NZ","Silence","Nonword","shorkel",1,1249,1136,11,161
"1362",606,"NZ","Silence","Nonword","prothy",1,1585,1249,12,162
"1363",606,"NZ","Silence","Word","arming",1,1288,1585,13,163
"1364",606,"NZ","Silence","Word","early",1,1066,1288,14,164
"1365",606,"NZ","Silence","Word","gotten",1,1085,1066,15,165
"1366",606,"NZ","Silence","Nonword","ortal",0,1002,1085,16,166
"1367",606,"NZ","Silence","Word","burden",1,942,1002,17,167
"1368",606,"NZ","Silence","Nonword","shormet",1,1479,942,18,168
"1369",606,"NZ","Silence","Word","waffle",1,941,1479,19,169
"1370",606,"NZ","Silence","Word","sorry",1,1069,941,20,170
"1371",606,"NZ","Silence","Word","chanting",1,1503,1069,21,171
"1372",606,"NZ","Silence","Nonword","barvet",1,974,1503,22,172
"1373",606,"NZ","Silence","Nonword","dorty",1,1209,974,23,173
"1374",606,"NZ","Silence","Word","shorten",1,1586,1209,24,174
"1375",606,"NZ","Silence","Nonword","verlip",1,1031,1586,25,175
"1376",606,"NZ","Silence","Nonword","carching",1,1175,1031,26,176
"1377",606,"NZ","Silence","Word","doting",0,797,1175,27,177
"1378",606,"NZ","Silence","Word","dancing",1,745,797,28,178
"1379",606,"NZ","Silence","Nonword","chorget",1,943,745,29,179
"1380",606,"NZ","Silence","Nonword","ploguing",1,2364,943,30,180
"1381",606,"NZ","Silence","Word","morning",1,943,2364,31,181
"1382",606,"NZ","Silence","Nonword","obbin",1,883,943,32,182
"1383",606,"NZ","Silence","Word","oaky",1,2006,883,33,183
"1384",606,"NZ","Silence","Nonword","blerking",1,1794,2006,34,184
"1385",606,"NZ","Silence","Word","boxes",1,1641,1794,35,185
"1386",606,"NZ","Silence","Nonword","thwabble",1,1075,1641,36,186
"1387",606,"NZ","Silence","Nonword","blanting",1,782,1075,37,187
"1388",606,"NZ","Silence","Word","granted",1,865,782,38,188
"1389",606,"NZ","Silence","Nonword","broaded",1,828,865,39,189
"1390",606,"NZ","Silence","Word","harden",1,1023,828,40,190
"1391",606,"NZ","Silence","Nonword","fozen",1,1576,1023,41,191
"1392",606,"NZ","Silence","Word","brothel",1,1134,1576,42,192
"1393",606,"NZ","Silence","Nonword","masty",1,1305,1134,43,193
"1394",606,"NZ","Silence","Nonword","choathy",1,1270,1305,44,194
"1395",606,"NZ","Silence","Nonword","lasket",1,1040,1270,45,195
"1396",606,"NZ","Silence","Nonword","foaping",1,989,1040,46,196
"1397",606,"NZ","Silence","Word","perfect",1,764,989,47,197
"1398",606,"NZ","Silence","Nonword","florcen",1,1011,764,48,198
"1399",606,"NZ","Silence","Nonword","chodded",1,1510,1011,49,199
"1400",606,"NZ","Silence","Nonword","dassing",1,1094,1510,50,200
"1401",606,"NZ","Noise","Word","fasten",1,1754,994,1,201
"1402",606,"NZ","Noise","Word","coffin",1,1011,1754,2,202
"1403",606,"NZ","Noise","Nonword","gasking",1,1112,1011,3,203
"1404",606,"NZ","Noise","Nonword","zoting",1,1156,1112,4,204
"1405",606,"NZ","Noise","Nonword","smophy",1,1374,1156,5,205
"1406",606,"NZ","Noise","Nonword","smoby",1,1069,1374,6,206
"1407",606,"NZ","Noise","Word","earnest",1,1540,1069,7,207
"1408",606,"NZ","Noise","Word","starving",1,1761,1540,8,208
"1409",606,"NZ","Noise","Word","knowledge",1,1691,1761,9,209
"1410",606,"NZ","Noise","Nonword","charvist",1,1690,1691,10,210
"1411",606,"NZ","Noise","Word","casket",1,1060,1690,11,211
"1412",606,"NZ","Noise","Nonword","zarden",1,1200,1060,12,212
"1413",606,"NZ","Noise","Nonword","shoated",0,0,1200,13,213
"1414",606,"NZ","Noise","Word","corpus",0,1427,994,14,214
"1415",606,"NZ","Noise","Nonword","chormel",1,1292,1427,15,215
"1416",606,"NZ","Noise","Word","slotting",1,1980,1292,16,216
"1417",606,"NZ","Noise","Word","crosses",1,1214,1980,17,217
"1418",606,"NZ","Noise","Nonword","prasses",0,1425,1214,18,218
"1419",606,"NZ","Noise","Word","parting",0,1179,1425,19,219
"1420",606,"NZ","Noise","Word","noble",1,953,1179,20,220
"1421",606,"NZ","Noise","Word","harming",1,2119,953,21,221
"1422",606,"NZ","Noise","Nonword","kirty",1,1297,2119,22,222
"1423",606,"NZ","Noise","Word","sharpen",1,1846,1297,23,223
"1424",606,"NZ","Noise","Word","drafting",1,1031,1846,24,224
"1425",606,"NZ","Noise","Word","laughing",1,955,1031,25,225
"1426",606,"NZ","Noise","Nonword","plancis",1,1515,955,26,226
"1427",606,"NZ","Noise","Word","cosy",1,1571,1515,27,227
"1428",606,"NZ","Noise","Nonword","fample",0,1755,1571,28,228
"1429",606,"NZ","Noise","Word","dirty",1,1311,1755,29,229
"1430",606,"NZ","Noise","Word","burning",0,1093,1311,30,230
"1431",606,"NZ","Noise","Nonword","purney",1,2230,1093,31,231
"1432",606,"NZ","Noise","Nonword","twokker",0,0,2230,32,232
"1433",606,"NZ","Noise","Word","frozen",1,1265,994,33,233
"1434",606,"NZ","Noise","Word","party",1,1619,1265,34,234
"1435",606,"NZ","Noise","Word","branches",1,1538,1619,35,235
"1436",606,"NZ","Noise","Nonword","mozing",0,1693,1538,36,236
"1437",606,"NZ","Noise","Nonword","gorrow",1,840,1693,37,237
"1438",606,"NZ","Noise","Nonword","blassing",1,2155,840,38,238
"1439",606,"NZ","Noise","Word","smoky",1,1200,2155,39,239
"1440",606,"NZ","Noise","Word","passing",1,1006,1200,40,240
"1441",606,"NZ","Noise","Nonword","zancing",0,0,1006,41,241
"1442",606,"NZ","Noise","Nonword","varsen",0,879,994,42,242
"1443",606,"NZ","Noise","Nonword","modging",1,1437,879,43,243
"1444",606,"NZ","Noise","Nonword","twoppy",1,832,1437,44,244
"1445",606,"NZ","Noise","Nonword","thoving",1,775,832,45,245
"1446",606,"NZ","Noise","Word","rafting",1,773,775,46,246
"1447",606,"NZ","Noise","Nonword","sprollen",1,804,773,47,247
"1448",606,"NZ","Noise","Nonword","lorcet",1,1276,804,48,248
"1449",606,"NZ","Noise","Word","pardon",1,1096,1276,49,249
"1450",606,"NZ","Noise","Nonword","koble",1,1247,1096,50,250
"1451",606,"NZ","Music","Nonword","dastness",1,1137,994,1,251
"1452",606,"NZ","Music","Word","phoning",1,961,1137,2,252
"1453",606,"NZ","Music","Nonword","purnel",0,680,961,3,253
"1454",606,"NZ","Music","Nonword","plasses",0,1055,680,4,254
"1455",606,"NZ","Music","Word","prodded",1,1122,1055,5,255
"1456",606,"NZ","Music","Nonword","praffing",1,1094,1122,6,256
"1457",606,"NZ","Music","Nonword","zasking",1,828,1094,7,257
"1458",606,"NZ","Music","Word","profit",1,845,828,8,258
"1459",606,"NZ","Music","Word","bloated",0,1056,845,9,259
"1460",606,"NZ","Music","Nonword","parshing",1,1898,1056,10,260
"1461",606,"NZ","Music","Nonword","sorpoise",1,1257,1898,11,261
"1462",606,"NZ","Music","Word","coping",1,1364,1257,12,262
"1463",606,"NZ","Music","Nonword","frozzy",0,1428,1364,13,263
"1464",606,"NZ","Music","Word","porpoise",1,872,1428,14,264
"1465",606,"NZ","Music","Nonword","wothing",0,1504,872,15,265
"1466",606,"NZ","Music","Word","prancing",1,1331,1504,16,266
"1467",606,"NZ","Music","Nonword","eardest",1,1230,1331,17,267
"1468",606,"NZ","Music","Nonword","garning",1,1287,1230,18,268
"1469",606,"NZ","Music","Nonword","donely",1,1055,1287,19,269
"1470",606,"NZ","Music","Word","clothing",1,942,1055,20,270
"1471",606,"NZ","Music","Word","stopping",1,1473,942,21,271
"1472",606,"NZ","Music","Word","orbit",1,2265,1473,22,272
"1473",606,"NZ","Music","Nonword","woney",1,2184,2265,23,273
"1474",606,"NZ","Music","Word","lancet",0,1581,2184,24,274
"1475",606,"NZ","Music","Nonword","smoated",0,0,1581,25,275
"1476",606,"NZ","Music","Nonword","tanches",1,1989,994,26,276
"1477",606,"NZ","Music","Nonword","gronest",1,1136,1989,27,277
"1478",606,"NZ","Music","Nonword","yormal",1,1634,1136,28,278
"1479",606,"NZ","Music","Word","portrait",1,2209,1634,29,279
"1480",606,"NZ","Music","Nonword","mernel",1,1363,2209,30,280
"1481",606,"NZ","Music","Word","stances",1,1339,1363,31,281
"1482",606,"NZ","Music","Nonword","gloffle",1,1038,1339,32,282
"1483",606,"NZ","Music","Word","hoarding",1,1554,1038,33,283
"1484",606,"NZ","Music","Word","sharpest",1,1644,1554,34,284
"1485",606,"NZ","Music","Nonword","vertain",1,2148,1644,35,285
"1486",606,"NZ","Music","Nonword","saffing",1,852,2148,36,286
"1487",606,"NZ","Music","Nonword","dronchel",1,904,852,37,287
"1488",606,"NZ","Music","Word","blasting",0,0,904,38,288
"1489",606,"NZ","Music","Nonword","bozes",1,1723,994,39,289
"1490",606,"NZ","Music","Word","carving",1,1529,1723,40,290
"1491",606,"NZ","Music","Nonword","vorden",1,1039,1529,41,291
"1492",606,"NZ","Music","Word","offer",1,958,1039,42,292
"1493",606,"NZ","Music","Word","foster",1,926,958,43,293
"1494",606,"NZ","Music","Word","soften",1,729,926,44,294
"1495",606,"NZ","Music","Word","quarry",1,1066,729,45,295
"1496",606,"NZ","Music","Nonword","skorking",0,864,1066,46,296
"1497",606,"NZ","Music","Word","normal",1,861,864,47,297
"1498",606,"NZ","Music","Word","poky",0,1989,861,48,298
"1499",606,"NZ","Music","Word","yearning",1,1101,1989,49,299
"1500",606,"NZ","Music","Word","farming",1,1664,1101,50,300
"1501",607,"US","Music","Word","dirty",1,1686,994,1,1
"1502",607,"US","Music","Nonword","zoting",1,1660,1686,2,2
"1503",607,"US","Music","Word","arty",1,2142,1660,3,3
"1504",607,"US","Music","Nonword","varling",1,1871,2142,4,4
"1505",607,"US","Music","Word","yearning",1,2139,1871,5,5
"1506",607,"US","Music","Word","chanting",1,1260,2139,6,6
"1507",607,"US","Music","Nonword","pranted",1,1668,1260,7,7
"1508",607,"US","Music","Nonword","woney",1,1208,1668,8,8
"1509",607,"US","Music","Nonword","ortal",0,2250,1208,9,9
"1510",607,"US","Music","Nonword","gloffle",1,1736,2250,10,10
"1511",607,"US","Music","Nonword","soating",1,1520,1736,11,11
"1512",607,"US","Music","Word","soaking",0,1000,1520,12,12
"1513",607,"US","Music","Nonword","dorty",0,0,1000,13,13
"1514",607,"US","Music","Word","losses",1,1710,994,14,14
"1515",607,"US","Music","Word","thorny",0,1910,1710,15,15
"1516",607,"US","Music","Nonword","bozes",1,2153,1910,16,16
"1517",607,"US","Music","Word","coffee",1,1163,2153,17,17
"1518",607,"US","Music","Word","slotting",0,0,1163,18,18
"1519",607,"US","Music","Word","coughing",1,1060,994,19,19
"1520",607,"US","Music","Nonword","donely",1,1182,1060,20,20
"1521",607,"US","Music","Word","burden",1,1261,1182,21,21
"1522",607,"US","Music","Nonword","shormet",1,1924,1261,22,22
"1523",607,"US","Music","Nonword","splaffing",1,1278,1924,23,23
"1524",607,"US","Music","Nonword","barvet",1,2078,1278,24,24
"1525",607,"US","Music","Nonword","korty",1,1880,2078,25,25
"1526",607,"US","Music","Word","shorten",1,1100,1880,26,26
"1527",607,"US","Music","Word","flirty",1,1608,1100,27,27
"1528",607,"US","Music","Nonword","safting",1,1152,1608,28,28
"1529",607,"US","Music","Word","starving",1,1096,1152,29,29
"1530",607,"US","Music","Word","charming",1,889,1096,30,30
"1531",607,"US","Music","Word","ocean",1,791,889,31,31
"1532",607,"US","Music","Nonword","plasses",0,1061,791,32,32
"1533",607,"US","Music","Word","costly",1,1156,1061,33,33
"1534",607,"US","Music","Word","coping",1,924,1156,34,34
"1535",607,"US","Music","Nonword","zosses",1,1196,924,35,35
"1536",607,"US","Music","Word","roading",1,1277,1196,36,36
"1537",607,"US","Music","Nonword","prothy",0,1365,1277,37,37
"1538",607,"US","Music","Word","crosses",1,1127,1365,38,38
"1539",607,"US","Music","Nonword","zasking",1,1485,1127,39,39
"1540",607,"US","Music","Word","garden",1,1485,1485,40,40
"1541",607,"US","Music","Nonword","thwabble",1,973,1485,41,41
"1542",607,"US","Music","Nonword","kearthly",0,1352,973,42,42
"1543",607,"US","Music","Nonword","bloppy",0,2261,1352,43,43
"1544",607,"US","Music","Word","loaded",1,922,2261,44,44
"1545",607,"US","Music","Word","portal",0,0,922,45,45
"1546",607,"US","Music","Word","squabble",1,1602,994,46,46
"1547",607,"US","Music","Word","morning",1,1039,1602,47,47
"1548",607,"US","Music","Nonword","wancet",1,1276,1039,48,48
"1549",607,"US","Music","Nonword","zearning",1,1049,1276,49,49
"1550",607,"US","Music","Nonword","shoated",1,1458,1049,50,50
"1551",607,"US","Noise","Nonword","pasking",0,1874,994,1,51
"1552",607,"US","Noise","Word","worsen",1,1179,1874,2,52
"1553",607,"US","Noise","Word","casting",1,1324,1179,3,53
"1554",607,"US","Noise","Nonword","swoded",1,1018,1324,4,54
"1555",607,"US","Noise","Word","clotted",0,1865,1018,5,55
"1556",607,"US","Noise","Word","perfect",1,1201,1865,6,56
"1557",607,"US","Noise","Nonword","chodded",1,1186,1201,7,57
"1558",607,"US","Noise","Word","branches",1,1552,1186,8,58
"1559",607,"US","Noise","Word","sorrow",0,2322,1552,9,59
"1560",607,"US","Noise","Nonword","sersect",1,1376,2322,10,60
"1561",607,"US","Noise","Word","sausage",1,1274,1376,11,61
"1562",607,"US","Noise","Word","noted",1,1964,1274,12,62
"1563",607,"US","Noise","Nonword","chodges",0,1424,1964,13,63
"1564",607,"US","Noise","Word","sharpen",1,970,1424,14,64
"1565",607,"US","Noise","Word","trophy",1,803,970,15,65
"1566",607,"US","Noise","Word","notches",1,1917,803,16,66
"1567",607,"US","Noise","Nonword","tarma",1,1318,1917,17,67
"1568",607,"US","Noise","Nonword","fozen",1,1627,1318,18,68
"1569",607,"US","Noise","Nonword","smophy",1,1327,1627,19,69
"1570",607,"US","Noise","Nonword","sposses",1,1082,1327,20,70
"1571",607,"US","Noise","Word","lancet",1,1816,1082,21,71
"1572",607,"US","Noise","Nonword","croating",1,2005,1816,22,72
"1573",607,"US","Noise","Word","hornet",1,1161,2005,23,73
"1574",607,"US","Noise","Nonword","blerking",0,1017,1161,24,74
"1575",607,"US","Noise","Word","rafting",1,772,1017,25,75
"1576",607,"US","Noise","Nonword","dastness",1,1432,772,26,76
"1577",607,"US","Noise","Nonword","obbin",1,1210,1432,27,77
"1578",607,"US","Noise","Nonword","zotted",1,1097,1210,28,78
"1579",607,"US","Noise","Nonword","parshing",1,1307,1097,29,79
"1580",607,"US","Noise","Nonword","frobing",0,1128,1307,30,80
"1581",607,"US","Noise","Nonword","choathy",1,1030,1128,31,81
"1582",607,"US","Noise","Nonword","wothing",1,1753,1030,32,82
"1583",607,"US","Noise","Word","bloated",1,1008,1753,33,83
"1584",607,"US","Noise","Word","hearty",1,1188,1008,34,84
"1585",607,"US","Noise","Word","noble",1,856,1188,35,85
"1586",607,"US","Noise","Word","mortal",1,1039,856,36,86
"1587",607,"US","Noise","Word","soften",0,2182,1039,37,87
"1588",607,"US","Noise","Word","clothing",1,1075,2182,38,88
"1589",607,"US","Noise","Nonword","mernel",1,1464,1075,39,89
"1590",607,"US","Noise","Word","shafting",1,1598,1464,40,90
"1591",607,"US","Noise","Nonword","gasking",1,1534,1598,41,91
"1592",607,"US","Noise","Nonword","spasking",1,1481,1534,42,92
"1593",607,"US","Noise","Word","journey",1,1175,1481,43,93
"1594",607,"US","Noise","Word","party",1,1057,1175,44,94
"1595",607,"US","Noise","Nonword","frozzy",1,1612,1057,45,95
"1596",607,"US","Noise","Nonword","shorkel",1,1164,1612,46,96
"1597",607,"US","Noise","Word","carving",1,1075,1164,47,97
"1598",607,"US","Noise","Nonword","plorset",0,2133,1075,48,98
"1599",607,"US","Noise","Word","cornet",0,2046,2133,49,99
"1600",607,"US","Noise","Nonword","narshing",1,1344,2046,50,100
"1601",607,"US","Silence","Nonword","chormel",1,1743,994,1,101
"1602",607,"US","Silence","Word","warden",0,2302,1743,2,102
"1603",607,"US","Silence","Nonword","flonger",1,1260,2302,3,103
"1604",607,"US","Silence","Nonword","broselet",1,1046,1260,4,104
"1605",607,"US","Silence","Nonword","kirty",1,1134,1046,5,105
"1606",607,"US","Silence","Nonword","mozing",0,0,1134,6,106
"1607",607,"US","Silence","Nonword","swonches",1,982,994,7,107
"1608",607,"US","Silence","Word","hoping",1,1245,982,8,108
"1609",607,"US","Silence","Word","normal",1,673,1245,9,109
"1610",607,"US","Silence","Word","offer",1,1073,673,10,110
"1611",607,"US","Silence","Word","prodded",1,803,1073,11,111
"1612",607,"US","Silence","Nonword","broaming",1,2162,803,12,112
"1613",607,"US","Silence","Word","staffing",1,1440,2162,13,113
"1614",607,"US","Silence","Word","laughing",1,1033,1440,14,114
"1615",607,"US","Silence","Nonword","varsen",1,1509,1033,15,115
"1616",607,"US","Silence","Nonword","plancis",1,1359,1509,16,116
"1617",607,"US","Silence","Word","blasting",0,851,1359,17,117
"1618",607,"US","Silence","Nonword","poven",1,903,851,18,118
"1619",607,"US","Silence","Nonword","morbing",1,1082,903,19,119
"1620",607,"US","Silence","Word","broken",1,801,1082,20,120
"1621",607,"US","Silence","Word","grasping",1,1037,801,21,121
"1622",607,"US","Silence","Nonword","blanting",0,1221,1037,22,122
"1623",607,"US","Silence","Word","profit",1,1079,1221,23,123
"1624",607,"US","Silence","Word","poaching",1,842,1079,24,124
"1625",607,"US","Silence","Nonword","yoster",1,1710,842,25,125
"1626",607,"US","Silence","Word","drafting",1,850,1710,26,126
"1627",607,"US","Silence","Nonword","charvist",1,1291,850,27,127
"1628",607,"US","Silence","Nonword","zornet",1,903,1291,28,128
"1629",607,"US","Silence","Word","earthly",1,1293,903,29,129
"1630",607,"US","Silence","Word","office",1,1312,1293,30,130
"1631",607,"US","Silence","Word","warning",1,1170,1312,31,131
"1632",607,"US","Silence","Nonword","hasket",1,1314,1170,32,132
"1633",607,"US","Silence","Nonword","twoppy",1,1033,1314,33,133
"1634",607,"US","Silence","Nonword","hargy",1,1089,1033,34,134
"1635",607,"US","Silence","Word","corpus",1,1648,1089,35,135
"1636",607,"US","Silence","Word","forty",0,1239,1648,36,136
"1637",607,"US","Silence","Nonword","soffice",1,2307,1239,37,137
"1638",607,"US","Silence","Word","asking",1,994,2307,38,138
"1639",607,"US","Silence","Word","market",1,1473,994,39,139
"1640",607,"US","Silence","Nonword","gorrow",0,0,1473,40,140
"1641",607,"US","Silence","Nonword","varpon",1,1023,994,41,141
"1642",607,"US","Silence","Nonword","broaded",1,945,1023,42,142
"1643",607,"US","Silence","Word","pardon",1,1161,945,43,143
"1644",607,"US","Silence","Nonword","stanches",1,2090,1161,44,144
"1645",607,"US","Silence","Word","slanted",1,1386,2090,45,145
"1646",607,"US","Silence","Word","knowledge",1,1867,1386,46,146
"1647",607,"US","Silence","Word","cosy",1,1255,1867,47,147
"1648",607,"US","Silence","Nonword","florcen",1,1482,1255,48,148
"1649",607,"US","Silence","Nonword","zirty",1,1132,1482,49,149
"1650",607,"US","Silence","Word","stopping",1,1444,1132,50,150
"1651",607,"NZ","Music","Nonword","groledge",1,1366,994,1,151
"1652",607,"NZ","Music","Word","curtain",1,1399,1366,2,152
"1653",607,"NZ","Music","Nonword","sorpoise",1,1390,1399,3,153
"1654",607,"NZ","Music","Word","coffin",1,1066,1390,4,154
"1655",607,"NZ","Music","Word","partial",1,837,1066,5,155
"1656",607,"NZ","Music","Word","arming",1,1973,837,6,156
"1657",607,"NZ","Music","Word","quarry",1,1145,1973,7,157
"1658",607,"NZ","Music","Nonword","vorden",1,1159,1145,8,158
"1659",607,"NZ","Music","Nonword","thoving",1,1053,1159,9,159
"1660",607,"NZ","Music","Word","masking",1,905,1053,10,160
"1661",607,"NZ","Music","Nonword","plarsy",0,2239,905,11,161
"1662",607,"NZ","Music","Word","classes",1,1276,2239,12,162
"1663",607,"NZ","Music","Nonword","dronchel",1,1059,1276,13,163
"1664",607,"NZ","Music","Nonword","prasses",0,0,1059,14,164
"1665",607,"NZ","Music","Word","prancing",0,0,994,15,165
"1666",607,"NZ","Music","Word","portrait",1,823,994,16,166
"1667",607,"NZ","Music","Word","soapy",0,1048,823,17,167
"1668",607,"NZ","Music","Nonword","foaping",1,970,1048,18,168
"1669",607,"NZ","Music","Nonword","garning",0,2123,970,19,169
"1670",607,"NZ","Music","Word","smoky",1,1235,2123,20,170
"1671",607,"NZ","Music","Nonword","snurchen",1,1142,1235,21,171
"1672",607,"NZ","Music","Nonword","eargy",1,1051,1142,22,172
"1673",607,"NZ","Music","Nonword","yormal",1,999,1051,23,173
"1674",607,"NZ","Music","Nonword","vertain",1,990,999,24,174
"1675",607,"NZ","Music","Nonword","troaky",1,995,990,25,175
"1676",607,"NZ","Music","Nonword","fasking",1,1161,995,26,176
