Participant,Voice,Condition,StimulusType,Word,Accuracy,RT,PrevRT,Trial_50,Trial_300
601,US,Music,Nonword,prothy,1,1081,994,1,1
601,US,Music,Nonword,mozing,0,1414,1081,2,2
601,US,Music,Word,often,1,934,1414,3,3
601,US,Music,Word,harden,1,859,934,4,4
601,US,Music,Word,quarry,1,982,859,5,5
601,US,Music,Nonword,varling,1,1036,982,6,6
601,US,Music,Nonword,stasking,1,1118,1036,7,7
601,US,Music,Word,cornet,0,989,1118,8,8
601,US,Music,Nonword,poven,1,1196,989,9,9
601,US,Music,Nonword,safting,1,1630,1196,10,10
601,US,Music,Word,coping,1,783,1630,11,11
601,US,Music,Word,roading,0,1505,783,12,12
601,US,Music,Word,blasting,1,901,1505,13,13
601,US,Music,Word,yearning,1,929,901,14,14
601,US,Music,Nonword,spoaming,1,1081,929,15,15
601,US,Music,Nonword,choathy,1,1113,1081,16,16
601,US,Music,Nonword,modging,1,1135,1113,17,17
601,US,Music,Nonword,hargy,1,1139,1135,18,18
601,US,Music,Word,pardon,1,818,1139,19,19
601,US,Music,Word,hosting,1,823,818,20,20
601,US,Music,Word,garnet,0,1156,823,21,21
601,US,Music,Nonword,broaming,1,1027,1156,22,22
601,US,Music,Word,casting,1,855,1027,23,23
601,US,Music,Word,classes,1,988,855,24,24
601,US,Music,Word,planting,1,790,988,25,25
601,US,Music,Word,posted,1,973,790,26,26
601,US,Music,Word,rotten,1,915,973,27,27
601,US,Music,Nonword,glarshest,1,950,915,28,28
601,US,Music,Nonword,groledge,1,1006,950,29,29
601,US,Music,Word,early,1,873,1006,30,30
601,US,Music,Word,mortal,1,1006,873,31,31
601,US,Music,Nonword,soating,1,1017,1006,32,32
601,US,Music,Word,soapy,1,887,1017,33,33
601,US,Music,Nonword,prasses,1,938,887,34,34
601,US,Music,Word,spoken,1,892,938,35,35
601,US,Music,Word,noted,1,865,892,36,36
601,US,Music,Nonword,splaffing,1,857,865,37,37
601,US,Music,Nonword,pasking,1,911,857,38,38
601,US,Music,Word,frozen,1,820,911,39,39
601,US,Music,Word,woken,1,1005,820,40,40
601,US,Music,Word,sporty,1,869,1005,41,41
601,US,Music,Nonword,eargy,1,902,869,42,42
601,US,Music,Nonword,plorset,1,737,902,43,43
601,US,Music,Nonword,stanches,1,919,737,44,44
601,US,Music,Nonword,swoded,1,919,919,45,45
601,US,Music,Word,loaded,1,640,919,46,46
601,US,Music,Nonword,florcen,1,809,640,47,47
601,US,Music,Nonword,troaky,1,1087,809,48,48
601,US,Music,Nonword,sorpoise,1,789,1087,49,49
601,US,Music,Nonword,purnel,1,739,789,50,50
601,US,Noise,Nonword,zarchet,1,851,994,1,51
601,US,Noise,Word,granted,1,906,851,2,52
601,US,Noise,Nonword,pranted,1,903,906,3,53
601,US,Noise,Nonword,gronest,1,1007,903,4,54
601,US,Noise,Word,sample,1,921,1007,5,55
601,US,Noise,Word,carving,1,927,921,6,56
601,US,Noise,Nonword,foting,0,939,927,7,57
601,US,Noise,Nonword,dorty,1,857,939,8,58
601,US,Noise,Word,shorten,1,934,857,9,59
601,US,Noise,Nonword,gloffle,1,846,934,10,60
601,US,Noise,Word,partial,1,1084,846,11,61
601,US,Noise,Nonword,blanting,1,909,1084,12,62
601,US,Noise,Nonword,twokker,1,962,909,13,63
601,US,Noise,Nonword,smoated,1,938,962,14,64
601,US,Noise,Nonword,soffice,1,1131,938,15,65
601,US,Noise,Nonword,zancing,1,913,1131,16,66
601,US,Noise,Nonword,barvet,1,925,913,17,67
601,US,Noise,Word,dirty,1,652,925,18,68
601,US,Noise,Word,earthly,1,964,652,19,69
601,US,Noise,Word,asking,1,789,964,20,70
601,US,Noise,Word,chanting,0,847,789,21,71
601,US,Noise,Nonword,twoppy,1,864,847,22,72
601,US,Noise,Word,flirty,0,1033,864,23,73
601,US,Noise,Nonword,dronchel,1,1056,1033,24,74
601,US,Noise,Nonword,sersect,1,1027,1056,25,75
601,US,Noise,Nonword,frozzy,1,932,1027,26,76
601,US,Noise,Nonword,talving,1,1035,932,27,77
601,US,Noise,Nonword,furden,1,994,1035,28,78
601,US,Noise,Word,porpoise,0,832,994,29,79
601,US,Noise,Word,casket,1,1013,832,30,80
601,US,Noise,Word,warden,0,1111,1013,31,81
601,US,Noise,Word,longing,1,815,1111,32,82
601,US,Noise,Nonword,dassing,1,1020,815,33,83
601,US,Noise,Word,branches,1,957,1020,34,84
601,US,Noise,Nonword,dastness,1,937,957,35,85
601,US,Noise,Word,doting,0,1151,937,36,86
601,US,Noise,Word,normal,1,836,1151,37,87
601,US,Noise,Nonword,shoated,1,980,836,38,88
601,US,Noise,Word,arming,1,958,980,39,89
601,US,Noise,Word,certain,1,870,958,40,90
601,US,Noise,Nonword,sasten,0,1279,870,41,91
601,US,Noise,Word,notches,0,1029,1279,42,92
601,US,Noise,Nonword,varpon,1,965,1029,43,93
601,US,Noise,Word,largest,0,955,965,44,94
601,US,Noise,Word,laughing,1,788,955,45,95
601,US,Noise,Word,hoarding,1,989,788,46,96
601,US,Noise,Word,journey,1,925,989,47,97
601,US,Noise,Nonword,morbing,1,1100,925,48,98
601,US,Noise,Nonword,zearning,1,919,1100,49,99
601,US,Noise,Word,token,1,1088,919,50,100
601,US,Silence,Nonword,zarmest,1,921,994,1,101
601,US,Silence,Word,portal,1,973,921,2,102
601,US,Silence,Nonword,vertain,1,997,973,3,103
601,US,Silence,Word,orbit,1,968,997,4,104
601,US,Silence,Nonword,chormel,1,878,968,5,105
601,US,Silence,Nonword,smophy,1,949,878,6,106
601,US,Silence,Word,portrait,1,1025,949,7,107
601,US,Silence,Nonword,zosses,1,987,1025,8,108
601,US,Silence,Word,lancet,0,985,987,9,109
601,US,Silence,Word,morning,1,828,985,10,110
601,US,Silence,Word,sausage,1,1033,828,11,111
601,US,Silence,Nonword,dasping,1,879,1033,12,112
601,US,Silence,Word,perfect,1,711,879,13,113
601,US,Silence,Word,poaching,1,866,711,14,114
601,US,Silence,Word,soaking,1,850,866,15,115
601,US,Silence,Nonword,narshing,1,937,850,16,116
601,US,Silence,Word,shafting,1,784,937,17,117
601,US,Silence,Word,coffin,0,961,784,18,118
601,US,Silence,Word,coffee,1,896,961,19,119
601,US,Silence,Nonword,sprollen,1,1049,896,20,120
601,US,Silence,Word,foster,0,1606,1049,21,121
601,US,Silence,Nonword,tharving,1,952,1606,22,122
601,US,Silence,Nonword,lorcet,1,974,952,23,123
601,US,Silence,Word,thorny,1,904,974,24,124
601,US,Silence,Nonword,gasking,1,1202,904,25,125
601,US,Silence,Word,staffing,0,1224,1202,26,126
601,US,Silence,Word,broken,1,696,1224,27,127
601,US,Silence,Nonword,vording,1,933,696,28,128
601,US,Silence,Nonword,furning,1,1147,933,29,129
601,US,Silence,Word,formal,1,931,1147,30,130
601,US,Silence,Nonword,hoaken,1,912,931,31,131
601,US,Silence,Nonword,chodded,1,1160,912,32,132
601,US,Silence,Word,knowledge,1,871,1160,33,133
601,US,Silence,Nonword,parshing,1,859,871,34,134
601,US,Silence,Word,farming,1,844,859,35,135
601,US,Silence,Nonword,bozes,1,867,844,36,136
601,US,Silence,Word,woven,1,701,867,37,137
601,US,Silence,Nonword,ormet,1,897,701,38,138
601,US,Silence,Word,hornet,1,823,897,39,139
601,US,Silence,Word,hoping,1,793,823,40,140
601,US,Silence,Word,offer,1,1028,793,41,141
601,US,Silence,Word,costly,1,968,1028,42,142
601,US,Silence,Nonword,garning,1,892,968,43,143
601,US,Silence,Nonword,gorrow,1,990,892,44,144
601,US,Silence,Nonword,tarma,1,811,990,45,145
601,US,Silence,Nonword,plasses,1,1177,811,46,146
601,US,Silence,Word,sorrow,0,937,1177,47,147
601,US,Silence,Nonword,wothing,1,922,937,48,148
601,US,Silence,Nonword,zoting,1,938,922,49,149
601,US,Silence,Nonword,mernel,1,1034,938,50,150
601,NZ,Music,Word,squabble,0,1062,994,1,151
601,NZ,Music,Nonword,masty,1,1064,1062,2,152
601,NZ,Music,Word,journal,1,892,1064,3,153
601,NZ,Music,Nonword,shormet,1,972,892,4,154
601,NZ,Music,Word,karma,1,789,972,5,155
601,NZ,Music,Nonword,yormal,1,955,789,6,156
601,NZ,Music,Nonword,eardest,0,1184,955,7,157
601,NZ,Music,Word,grasping,1,911,1184,8,158
601,NZ,Music,Nonword,banches,1,999,911,9,159
601,NZ,Music,Word,clasping,0,1162,999,10,160
601,NZ,Music,Nonword,korty,1,1020,1162,11,161
601,NZ,Music,Word,charming,1,766,1020,12,162
601,NZ,Music,Nonword,kirty,1,1034,766,13,163
601,NZ,Music,Word,glasses,1,773,1034,14,164
601,NZ,Music,Word,worsen,1,826,773,15,165
601,NZ,Music,Nonword,yoster,1,814,826,16,166
601,NZ,Music,Nonword,saffing,1,919,814,17,167
601,NZ,Music,Word,boating,1,832,919,18,168
601,NZ,Music,Word,corpus,0,976,832,19,169
601,NZ,Music,Nonword,hasket,1,1420,976,20,170
601,NZ,Music,Nonword,donely,1,895,1420,21,171
601,NZ,Music,Word,gasping,1,1000,895,22,172
601,NZ,Music,Word,passing,1,767,1000,23,173
601,NZ,Music,Nonword,chodges,1,829,767,24,174
601,NZ,Music,Nonword,frobing,0,952,829,25,175
601,NZ,Music,Word,basket,1,896,952,26,176
601,NZ,Music,Nonword,obbin,0,1039,896,27,177
601,NZ,Music,Nonword,snurchen,1,1027,1039,28,178
601,NZ,Music,Word,harpist,0,1414,1027,29,179
601,NZ,Music,Word,clothing,1,766,1414,30,180
601,NZ,Music,Nonword,fodding,1,970,766,31,181
601,NZ,Music,Word,brothel,1,1043,970,32,182
601,NZ,Music,Nonword,fample,1,927,1043,33,183
601,NZ,Music,Word,hearty,1,802,927,34,184
601,NZ,Music,Word,prodded,1,972,802,35,185
601,NZ,Music,Word,crafting,1,822,972,36,186
601,NZ,Music,Nonword,chorget,1,909,822,37,187
601,NZ,Music,Word,earnest,0,1272,909,38,188
601,NZ,Music,Nonword,plancis,1,994,1272,39,189
601,NZ,Music,Word,garden,1,833,994,40,190
601,NZ,Music,Nonword,snarfen,1,916,833,41,191
601,NZ,Music,Word,stances,1,933,916,42,192
601,NZ,Music,Nonword,thoving,1,909,933,43,193
601,NZ,Music,Nonword,blerking,1,909,909,44,194
601,NZ,Music,Word,trophy,1,762,909,45,195
601,NZ,Music,Nonword,vorden,1,878,762,46,196
601,NZ,Music,Nonword,koble,1,869,878,47,197
601,NZ,Music,Word,sharpen,1,896,869,48,198
601,NZ,Music,Nonword,clarny,1,847,896,49,199
601,NZ,Music,Word,slanted,1,853,847,50,200
601,NZ,Noise,Nonword,swonches,1,1054,994,1,201
601,NZ,Noise,Nonword,zotted,1,914,1054,2,202
601,NZ,Noise,Nonword,morgeous,1,896,914,3,203
601,NZ,Noise,Nonword,fosted,0,937,896,4,204
601,NZ,Noise,Word,kernel,1,867,937,5,205
601,NZ,Noise,Nonword,flonger,0,921,867,6,206
601,NZ,Noise,Word,stronger,1,735,921,7,207
601,NZ,Noise,Nonword,groating,1,860,735,8,208
601,NZ,Noise,Word,roses,1,715,860,9,209
601,NZ,Noise,Word,bloated,1,998,715,10,210
601,NZ,Noise,Word,poky,0,1095,998,11,211
601,NZ,Noise,Nonword,sposses,1,1244,1095,12,212
601,NZ,Noise,Word,starving,1,861,1244,13,213
601,NZ,Noise,Nonword,smoby,1,1016,861,14,214
601,NZ,Noise,Word,office,1,727,1016,15,215
601,NZ,Noise,Nonword,zarden,1,750,727,16,216
601,NZ,Noise,Nonword,frodgen,1,874,750,17,217
601,NZ,Noise,Word,floating,1,801,874,18,218
601,NZ,Noise,Nonword,garking,1,757,801,19,219
601,NZ,Noise,Nonword,zasking,1,888,757,20,220
601,NZ,Noise,Word,oaky,0,853,888,21,221
601,NZ,Noise,Nonword,woney,1,909,853,22,222
601,NZ,Noise,Word,noble,1,950,909,23,223
601,NZ,Noise,Word,organ,1,881,950,24,224
601,NZ,Noise,Nonword,thwabble,1,898,881,25,225
601,NZ,Noise,Nonword,fasking,1,939,898,26,226
601,NZ,Noise,Word,ocean,1,842,939,27,227
601,NZ,Noise,Word,sharpest,1,1145,842,28,228
601,NZ,Noise,Word,boxes,1,829,1145,29,229
601,NZ,Noise,Word,arty,1,979,829,30,230
601,NZ,Noise,Word,waffle,1,771,979,31,231
601,NZ,Noise,Nonword,praffing,1,822,771,32,232
601,NZ,Noise,Nonword,charvist,1,889,822,33,233
601,NZ,Noise,Nonword,broselet,1,1114,889,34,234
601,NZ,Noise,Word,coughing,0,882,1114,35,235
601,NZ,Noise,Nonword,carching,1,964,882,36,236
601,NZ,Noise,Word,fasten,0,1106,964,37,237
601,NZ,Noise,Nonword,rozzing,1,1493,1106,38,238
601,NZ,Noise,Word,fasting,0,1152,1493,39,239
601,NZ,Noise,Nonword,foaping,0,1035,1152,40,240
601,NZ,Noise,Word,harming,1,923,1035,41,241
601,NZ,Noise,Word,party,1,812,923,42,242
601,NZ,Noise,Nonword,croating,1,1031,812,43,243
601,NZ,Noise,Word,burning,0,961,1031,44,244
601,NZ,Noise,Nonword,skorking,1,1131,961,45,245
601,NZ,Noise,Nonword,shorkel,1,1174,1131,46,246
601,NZ,Noise,Word,prancing,0,1225,1174,47,247
601,NZ,Noise,Word,slotting,1,909,1225,48,248
601,NZ,Noise,Word,lasted,1,1203,909,49,249
601,NZ,Noise,Nonword,plarsy,1,1458,1203,50,250
601,NZ,Silence,Word,market,1,952,994,1,251
601,NZ,Silence,Word,stopping,1,874,952,2,252
601,NZ,Silence,Nonword,zirty,1,1017,874,3,253
601,NZ,Silence,Word,clotted,1,949,1017,4,254
601,NZ,Silence,Nonword,zornet,1,840,949,5,255
601,NZ,Silence,Nonword,roaning,1,880,840,6,256
601,NZ,Silence,Word,lonely,1,912,880,7,257
601,NZ,Silence,Nonword,boapy,1,765,912,8,258
601,NZ,Silence,Nonword,spasking,1,954,765,9,259
601,NZ,Silence,Nonword,tanches,0,975,954,10,260
601,NZ,Silence,Nonword,brancing,0,939,975,11,261
601,NZ,Silence,Nonword,gurky,1,793,939,12,262
601,NZ,Silence,Nonword,varsen,0,1000,793,13,263
601,NZ,Silence,Nonword,bloppy,1,824,1000,14,264
601,NZ,Silence,Word,masking,0,942,824,15,265
601,NZ,Silence,Word,gotten,1,779,942,16,266
601,NZ,Silence,Word,drafting,1,739,779,17,267
601,NZ,Silence,Word,losses,1,940,739,18,268
601,NZ,Silence,Word,forty,1,923,940,19,269
601,NZ,Silence,Word,profit,1,843,923,20,270
601,NZ,Silence,Word,soften,1,857,843,21,271
601,NZ,Silence,Nonword,fozen,1,816,857,22,272
601,NZ,Silence,Nonword,ploxes,0,965,816,23,273
601,NZ,Silence,Word,smoky,1,1067,965,24,274
601,NZ,Silence,Word,dancing,1,679,1067,25,275
601,NZ,Silence,Nonword,sarnel,1,935,679,26,276
601,NZ,Silence,Word,washing,1,718,935,27,277
601,NZ,Silence,Word,warning,1,1191,718,28,278
601,NZ,Silence,Nonword,wancet,1,1112,1191,29,279
601,NZ,Silence,Word,phoning,1,968,1112,30,280
601,NZ,Silence,Nonword,purney,1,772,968,31,281
601,NZ,Silence,Word,crosses,1,689,772,32,282
601,NZ,Silence,Nonword,blassing,1,815,689,33,283
601,NZ,Silence,Nonword,broaded,1,854,815,34,284
601,NZ,Silence,Nonword,ortal,1,815,854,35,285
601,NZ,Silence,Word,parting,1,778,815,36,286
601,NZ,Silence,Nonword,kearthly,1,851,778,37,287
601,NZ,Silence,Word,person,1,927,851,38,288
601,NZ,Silence,Word,thirty,1,903,927,39,289
601,NZ,Silence,Nonword,thoffit,1,1010,903,40,290
601,NZ,Silence,Nonword,lasket,1,1165,1010,41,291
601,NZ,Silence,Nonword,verlip,1,904,1165,42,292
601,NZ,Silence,Word,rafting,1,833,904,43,293
601,NZ,Silence,Word,burden,0,692,833,44,294
601,NZ,Silence,Word,cosy,1,714,692,45,295
601,NZ,Silence,Word,curtain,1,827,714,46,296
601,NZ,Silence,Word,sorry,1,765,827,47,297
601,NZ,Silence,Nonword,kosken,1,966,765,48,298
601,NZ,Silence,Nonword,ploguing,1,702,966,49,299
601,NZ,Silence,Nonword,dwotten,1,831,702,50,300
602,US,Music,Nonword,fosted,1,1056,994,1,1
602,US,Music,Word,sorrow,1,1160,1056,2,2
602,US,Music,Nonword,carching,1,1232,1160,3,3
602,US,Music,Nonword,varling,1,1085,1232,4,4
602,US,Music,Word,doting,0,1186,1085,5,5
602,US,Music,Word,garnet,1,1286,1186,6,6
602,US,Music,Nonword,bloppy,0,1080,1286,7,7
602,US,Music,Word,forty,1,1152,1080,8,8
602,US,Music,Word,sausage,1,1061,1152,9,9
602,US,Music,Nonword,spasking,1,1166,1061,10,10
602,US,Music,Word,clotted,1,1386,1166,11,11
602,US,Music,Word,noted,1,1143,1386,12,12
602,US,Music,Nonword,chormel,1,1113,1143,13,13
602,US,Music,Word,cosy,1,980,1113,14,14
602,US,Music,Word,crafting,1,1029,980,15,15
602,US,Music,Nonword,charvist,1,1034,1029,16,16
602,US,Music,Nonword,masty,1,1332,1034,17,17
602,US,Music,Word,bloated,1,887,1332,18,18
602,US,Music,Nonword,vorden,1,1030,887,19,19
602,US,Music,Nonword,furning,1,1494,1030,20,20
602,US,Music,Nonword,korty,1,1452,1494,21,21
602,US,Music,Nonword,twoppy,1,1361,1452,22,22
602,US,Music,Word,woven,1,1002,1361,23,23
602,US,Music,Word,harpist,0,1300,1002,24,24
602,US,Music,Word,carving,1,980,1300,25,25
602,US,Music,Word,stances,1,1152,980,26,26
602,US,Music,Nonword,chorget,1,1126,1152,27,27
602,US,Music,Nonword,blassing,1,1246,1126,28,28
602,US,Music,Word,market,1,993,1246,29,29
602,US,Music,Nonword,sersect,1,1106,993,30,30
602,US,Music,Nonword,snurchen,1,1038,1106,31,31
602,US,Music,Nonword,woney,1,1184,1038,32,32
602,US,Music,Nonword,tarma,1,1034,1184,33,33
602,US,Music,Nonword,rozzing,1,1516,1034,34,34
602,US,Music,Word,poky,1,1991,1516,35,35
602,US,Music,Nonword,wancet,1,1045,1991,36,36
602,US,Music,Word,ocean,1,879,1045,37,37
602,US,Music,Nonword,dasping,1,977,879,38,38
602,US,Music,Word,arming,1,1065,977,39,39
602,US,Music,Word,arty,1,1171,1065,40,40
602,US,Music,Nonword,zasking,1,1053,1171,41,41
602,US,Music,Word,phoning,1,820,1053,42,42
602,US,Music,Word,starving,1,962,820,43,43
602,US,Music,Word,posted,1,943,962,44,44
602,US,Music,Word,floating,1,893,943,45,45
602,US,Music,Nonword,ortal,1,908,893,46,46
602,US,Music,Nonword,dronchel,1,1017,908,47,47
602,US,Music,Nonword,furden,1,1030,1017,48,48
602,US,Music,Word,drafting,1,775,1030,49,49
602,US,Music,Word,prancing,1,1021,775,50,50
602,US,Silence,Word,certain,1,1150,994,1,51
602,US,Silence,Nonword,donely,1,1097,1150,2,52
602,US,Silence,Nonword,tharving,1,1055,1097,3,53
602,US,Silence,Word,slotting,0,1038,1055,4,54
602,US,Silence,Nonword,banches,1,1007,1038,5,55
602,US,Silence,Nonword,swoded,1,1110,1007,6,56
602,US,Silence,Nonword,brancing,1,1030,1110,7,57
602,US,Silence,Word,crosses,1,1086,1030,8,58
602,US,Silence,Word,sporty,1,1020,1086,9,59
602,US,Silence,Nonword,zirty,1,1152,1020,10,60
602,US,Silence,Nonword,gloffle,1,1368,1152,11,61
602,US,Silence,Nonword,smoby,1,1234,1368,12,62
602,US,Silence,Nonword,yormal,1,1125,1234,13,63
602,US,Silence,Nonword,thwabble,1,1182,1125,14,64
602,US,Silence,Nonword,fasking,1,1185,1182,15,65
602,US,Silence,Word,karma,1,1014,1185,16,66
602,US,Silence,Nonword,frodgen,1,1095,1014,17,67
602,US,Silence,Nonword,twokker,1,1104,1095,18,68
602,US,Silence,Word,pardon,1,992,1104,19,69
602,US,Silence,Word,yearning,0,1123,992,20,70
602,US,Silence,Nonword,hargy,1,1149,1123,21,71
602,US,Silence,Nonword,lorcet,1,1140,1149,22,72
602,US,Silence,Nonword,swonches,1,1201,1140,23,73
602,US,Silence,Word,flirty,1,1162,1201,24,74
602,US,Silence,Nonword,zarchet,1,961,1162,25,75
602,US,Silence,Word,waffle,1,948,961,26,76
602,US,Silence,Word,casting,1,995,948,27,77
602,US,Silence,Nonword,kirty,1,1035,995,28,78
602,US,Silence,Nonword,croating,1,979,1035,29,79
602,US,Silence,Word,offer,1,1604,979,30,80
602,US,Silence,Word,longing,1,1189,1604,31,81
602,US,Silence,Word,dirty,1,985,1189,32,82
602,US,Silence,Word,spoken,1,918,985,33,83
602,US,Silence,Nonword,zarmest,1,956,918,34,84
602,US,Silence,Word,sharpen,1,1102,956,35,85
602,US,Silence,Nonword,sarnel,1,1098,1102,36,86
602,US,Silence,Word,boxes,1,1156,1098,37,87
602,US,Silence,Word,dancing,1,990,1156,38,88
602,US,Silence,Nonword,skorking,1,1242,990,39,89
602,US,Silence,Word,burden,0,1263,1242,40,90
602,US,Silence,Word,roading,0,1396,1263,41,91
602,US,Silence,Word,soapy,1,1199,1396,42,92
602,US,Silence,Nonword,garking,1,1107,1199,43,93
602,US,Silence,Nonword,koble,1,1345,1107,44,94
602,US,Silence,Word,party,1,1049,1345,45,95
602,US,Silence,Word,stronger,1,1042,1049,46,96
602,US,Silence,Word,warning,1,1042,1042,47,97
602,US,Silence,Word,harming,1,1025,1042,48,98
602,US,Silence,Nonword,soating,1,1232,1025,49,99
602,US,Silence,Word,hoarding,1,997,1232,50,100
602,US,Noise,Nonword,mozing,1,1177,994,1,101
602,US,Noise,Word,smoky,1,976,1177,2,102
602,US,Noise,Nonword,broaded,1,1282,976,3,103
602,US,Noise,Word,squabble,0,1065,1282,4,104
602,US,Noise,Nonword,poven,1,1287,1065,5,105
602,US,Noise,Word,gotten,0,1160,1287,6,106
602,US,Noise,Word,lonely,1,853,1160,7,107
602,US,Noise,Nonword,sposses,1,1210,853,8,108
602,US,Noise,Word,burning,1,941,1210,9,109
602,US,Noise,Word,lasted,1,987,941,10,110
602,US,Noise,Word,thorny,1,1098,987,11,111
602,US,Noise,Word,stopping,1,976,1098,12,112
602,US,Noise,Word,hosting,1,973,976,13,113
602,US,Noise,Word,worsen,1,1105,973,14,114
602,US,Noise,Nonword,saffing,1,1164,1105,15,115
602,US,Noise,Word,garden,1,1062,1164,16,116
602,US,Noise,Word,farming,1,990,1062,17,117
602,US,Noise,Word,cornet,0,1247,990,18,118
602,US,Noise,Word,portrait,1,1284,1247,19,119
602,US,Noise,Word,hearty,1,1144,1284,20,120
602,US,Noise,Word,lancet,0,1036,1144,21,121
602,US,Noise,Word,boating,0,1211,1036,22,122
602,US,Noise,Word,prodded,1,1339,1211,23,123
602,US,Noise,Word,trophy,1,1096,1339,24,124
602,US,Noise,Nonword,broaming,1,1250,1096,25,125
602,US,Noise,Nonword,thoving,1,1109,1250,26,126
602,US,Noise,Nonword,plarsy,1,1204,1109,27,127
602,US,Noise,Nonword,flonger,1,1272,1204,28,128
602,US,Noise,Nonword,fample,1,1157,1272,29,129
602,US,Noise,Word,casket,1,1075,1157,30,130
602,US,Noise,Nonword,smoated,1,1067,1075,31,131
602,US,Noise,Nonword,dastness,1,1094,1067,32,132
602,US,Noise,Nonword,dwotten,1,1000,1094,33,133
602,US,Noise,Word,quarry,1,1150,1000,34,134
602,US,Noise,Nonword,yoster,1,1075,1150,35,135
602,US,Noise,Nonword,obbin,1,1121,1075,36,136
602,US,Noise,Word,formal,1,1101,1121,37,137
602,US,Noise,Nonword,fozen,1,1352,1101,38,138
602,US,Noise,Nonword,smophy,1,1293,1352,39,139
602,US,Noise,Nonword,purney,0,1391,1293,40,140
602,US,Noise,Word,asking,1,1045,1391,41,141
602,US,Noise,Word,coffee,1,895,1045,42,142
602,US,Noise,Nonword,ploxes,1,1168,895,43,143
602,US,Noise,Nonword,pasking,0,1467,1168,44,144
602,US,Noise,Nonword,ploguing,1,1193,1467,45,145
602,US,Noise,Nonword,soffice,1,1306,1193,46,146
602,US,Noise,Nonword,snarfen,1,1257,1306,47,147
602,US,Noise,Nonword,clarny,1,1315,1257,48,148
602,US,Noise,Nonword,bozes,1,1469,1315,49,149
602,US,Noise,Word,earthly,0,1244,1469,50,150
602,NZ,Music,Nonword,splaffing,1,1155,994,1,151
602,NZ,Music,Word,morning,1,893,1155,2,152
602,NZ,Music,Nonword,troaky,1,945,893,3,153
602,NZ,Music,Word,sorry,1,949,945,4,154
602,NZ,Music,Word,mortal,1,1006,949,5,155
602,NZ,Music,Nonword,gorrow,1,937,1006,6,156
602,NZ,Music,Nonword,eargy,1,1097,937,7,157
602,NZ,Music,Word,losses,0,1157,1097,8,158
602,NZ,Music,Word,loaded,1,1023,1157,9,159
602,NZ,Music,Word,hoping,1,949,1023,10,160
602,NZ,Music,Nonword,wothing,1,1016,949,11,161
602,NZ,Music,Word,woken,1,1040,1016,12,162
602,NZ,Music,Nonword,stanches,1,1309,1040,13,163
602,NZ,Music,Nonword,sorpoise,1,1167,1309,14,164
602,NZ,Music,Nonword,lasket,1,1204,1167,15,165
602,NZ,Music,Nonword,boapy,1,1038,1204,16,166
602,NZ,Music,Nonword,verlip,1,1264,1038,17,167
602,NZ,Music,Word,washing,1,818,1264,18,168
602,NZ,Music,Nonword,shorkel,1,1114,818,19,169
602,NZ,Music,Word,perfect,1,844,1114,20,170
602,NZ,Music,Word,branches,0,1002,844,21,171
602,NZ,Music,Word,coughing,1,906,1002,22,172
602,NZ,Music,Nonword,pranted,1,996,906,23,173
602,NZ,Music,Word,frozen,1,892,996,24,174
602,NZ,Music,Nonword,vertain,1,1015,892,25,175
602,NZ,Music,Word,harden,1,905,1015,26,176
602,NZ,Music,Nonword,thoffit,1,1029,905,27,177
602,NZ,Music,Word,coping,1,1052,1029,28,178
602,NZ,Music,Nonword,fodding,0,911,1052,29,179
602,NZ,Music,Word,thirty,0,1019,911,30,180
602,NZ,Music,Nonword,shormet,1,990,1019,31,181
602,NZ,Music,Word,classes,1,980,990,32,182
602,NZ,Music,Word,granted,1,971,980,33,183
602,NZ,Music,Word,staffing,0,966,971,34,184
602,NZ,Music,Nonword,zearning,1,1037,966,35,185
602,NZ,Music,Word,clothing,1,919,1037,36,186
602,NZ,Music,Word,basket,1,927,919,37,187
602,NZ,Music,Nonword,modging,1,1029,927,38,188
602,NZ,Music,Nonword,morgeous,1,1041,1029,39,189
602,NZ,Music,Nonword,gurky,1,1016,1041,40,190
602,NZ,Music,Nonword,groating,1,1149,1016,41,191
602,NZ,Music,Word,planting,1,1096,1149,42,192
602,NZ,Music,Word,organ,1,976,1096,43,193
602,NZ,Music,Nonword,dorty,1,990,976,44,194
602,NZ,Music,Nonword,praffing,1,1024,990,45,195
602,NZ,Music,Word,parting,1,1089,1024,46,196
602,NZ,Music,Nonword,purnel,1,1014,1089,47,197
602,NZ,Music,Nonword,frozzy,1,924,1014,48,198
602,NZ,Music,Word,office,1,841,924,49,199
602,NZ,Music,Word,person,1,916,841,50,200
602,NZ,Silence,Nonword,foting,0,1341,994,1,201
602,NZ,Silence,Word,clasping,0,1243,1341,2,202
602,NZ,Silence,Nonword,chodges,1,1002,1243,3,203
602,NZ,Silence,Word,costly,1,959,1002,4,204
602,NZ,Silence,Nonword,sasten,1,1005,959,5,205
602,NZ,Silence,Nonword,stasking,1,1077,1005,6,206
602,NZ,Silence,Word,rotten,1,1037,1077,7,207
602,NZ,Silence,Word,slanted,1,1120,1037,8,208
602,NZ,Silence,Nonword,foaping,1,1049,1120,9,209
602,NZ,Silence,Word,knowledge,1,1011,1049,10,210
602,NZ,Silence,Word,shafting,0,1588,1011,11,211
602,NZ,Silence,Nonword,varpon,1,1263,1588,12,212
602,NZ,Silence,Nonword,tanches,0,992,1263,13,213
602,NZ,Silence,Word,rafting,1,865,992,14,214
602,NZ,Silence,Nonword,shoated,1,1062,865,15,215
602,NZ,Silence,Nonword,barvet,1,1038,1062,16,216
602,NZ,Silence,Word,soaking,1,991,1038,17,217
602,NZ,Silence,Word,foster,1,1077,991,18,218
602,NZ,Silence,Word,kernel,1,1141,1077,19,219
602,NZ,Silence,Word,often,1,1087,1141,20,220
602,NZ,Silence,Nonword,groledge,1,1373,1087,21,221
602,NZ,Silence,Nonword,zornet,1,1169,1373,22,222
602,NZ,Silence,Word,roses,1,990,1169,23,223
602,NZ,Silence,Nonword,kearthly,1,1024,990,24,224
602,NZ,Silence,Nonword,parshing,1,1193,1024,25,225
602,NZ,Silence,Word,sharpest,0,1264,1193,26,226
602,NZ,Silence,Nonword,prasses,0,1375,1264,27,227
602,NZ,Silence,Nonword,eardest,1,1114,1375,28,228
602,NZ,Silence,Nonword,broselet,1,1148,1114,29,229
602,NZ,Silence,Word,chanting,1,936,1148,30,230
602,NZ,Silence,Nonword,vording,0,1233,936,31,231
602,NZ,Silence,Word,masking,1,1161,1233,32,232
602,NZ,Silence,Nonword,gronest,1,1248,1161,33,233
602,NZ,Silence,Word,largest,1,1188,1248,34,234
602,NZ,Silence,Nonword,spoaming,1,1104,1188,35,235
602,NZ,Silence,Nonword,zosses,1,1146,1104,36,236
602,NZ,Silence,Nonword,zarden,1,1101,1146,37,237
602,NZ,Silence,Word,portal,1,1064,1101,38,238
602,NZ,Silence,Nonword,gasking,1,1125,1064,39,239
602,NZ,Silence,Word,journal,1,1192,1125,40,240
602,NZ,Silence,Word,orbit,0,1104,1192,41,241
602,NZ,Silence,Nonword,frobing,1,1111,1104,42,242
602,NZ,Silence,Word,charming,1,1013,1111,43,243
602,NZ,Silence,Word,fasting,1,1021,1013,44,244
602,NZ,Silence,Word,soften,1,918,1021,45,245
602,NZ,Silence,Nonword,dassing,1,1044,918,46,246
602,NZ,Silence,Word,porpoise,0,1036,1044,47,247
602,NZ,Silence,Word,hornet,1,1099,1036,48,248
602,NZ,Silence,Word,corpus,0,1071,1099,49,249
602,NZ,Silence,Nonword,sprollen,1,1095,1071,50,250
602,NZ,Noise,Word,early,1,1085,994,1,251
602,NZ,Noise,Word,earnest,0,1087,1085,2,252
602,NZ,Noise,Nonword,chodded,1,1029,1087,3,253
602,NZ,Noise,Nonword,morbing,1,1118,1029,4,254
602,NZ,Noise,Nonword,ormet,1,1050,1118,5,255
602,NZ,Noise,Nonword,kosken,1,1051,1050,6,256
602,NZ,Noise,Word,warden,0,1581,1051,7,257
602,NZ,Noise,Word,laughing,1,953,1581,8,258
602,NZ,Noise,Nonword,zancing,0,854,953,9,259
602,NZ,Noise,Word,profit,0,1141,854,10,260
602,NZ,Noise,Word,partial,1,1021,1141,11,261
602,NZ,Noise,Nonword,talving,1,1239,1021,12,262
602,NZ,Noise,Word,notches,1,892,1239,13,263
602,NZ,Noise,Nonword,hasket,1,1081,892,14,264
602,NZ,Noise,Nonword,glarshest,1,1150,1081,15,265
602,NZ,Noise,Word,noble,1,993,1150,16,266
602,NZ,Noise,Word,broken,1,874,993,17,267
602,NZ,Noise,Word,curtain,1,1070,874,18,268
602,NZ,Noise,Word,oaky,0,1001,1070,19,269
602,NZ,Noise,Word,blasting,1,1160,1001,20,270
602,NZ,Noise,Nonword,narshing,1,1129,1160,21,271
602,NZ,Noise,Nonword,hoaken,1,1174,1129,22,272
602,NZ,Noise,Word,normal,1,1080,1174,23,273
602,NZ,Noise,Word,token,1,908,1080,24,274
602,NZ,Noise,Nonword,prothy,0,1309,908,25,275
602,NZ,Noise,Nonword,plasses,0,1105,1309,26,276
602,NZ,Noise,Word,coffin,1,940,1105,27,277
602,NZ,Noise,Word,journey,1,985,940,28,278
602,NZ,Noise,Nonword,blerking,1,951,985,29,279
602,NZ,Noise,Word,glasses,1,848,951,30,280
602,NZ,Noise,Nonword,florcen,1,972,848,31,281
602,NZ,Noise,Word,fasten,1,1441,972,32,282
602,NZ,Noise,Nonword,roaning,1,1149,1441,33,283
602,NZ,Noise,Word,poaching,1,1099,1149,34,284
602,NZ,Noise,Word,gasping,1,881,1099,35,285
602,NZ,Noise,Nonword,zotted,1,975,881,36,286
602,NZ,Noise,Word,brothel,1,924,975,37,287
602,NZ,Noise,Nonword,choathy,1,866,924,38,288
602,NZ,Noise,Nonword,mernel,1,1000,866,39,289
602,NZ,Noise,Word,sample,1,1129,1000,40,290
602,NZ,Noise,Nonword,blanting,1,1267,1129,41,291
602,NZ,Noise,Nonword,zoting,1,1652,1267,42,292
602,NZ,Noise,Nonword,plancis,1,1399,1652,43,293
602,NZ,Noise,Word,passing,1,913,1399,44,294
602,NZ,Noise,Nonword,plorset,1,1260,913,45,295
602,NZ,Noise,Nonword,varsen,0,924,1260,46,296
602,NZ,Noise,Nonword,garning,1,1205,924,47,297
602,NZ,Noise,Word,shorten,1,1067,1205,48,298
602,NZ,Noise,Word,grasping,1,1146,1067,49,299
602,NZ,Noise,Nonword,safting,1,1193,1146,50,300
603,US,Noise,Word,quarry,1,1575,994,1,1
603,US,Noise,Nonword,fozen,1,1454,1575,2,2
603,US,Noise,Word,phoning,1,1823,1454,3,3
603,US,Noise,Nonword,chormel,1,1310,1823,4,4
603,US,Noise,Nonword,shoated,1,1625,1310,5,5
603,US,Noise,Word,farming,0,0,1625,6,6
603,US,Noise,Word,sharpest,1,1215,994,7,7
603,US,Noise,Nonword,hargy,1,1295,1215,8,8
603,US,Noise,Nonword,thwabble,1,896,1295,9,9
603,US,Noise,Nonword,prothy,1,965,896,10,10
603,US,Noise,Nonword,broaming,1,1568,965,11,11
603,US,Noise,Word,coffee,1,982,1568,12,12
603,US,Noise,Nonword,parshing,1,1213,982,13,13
603,US,Noise,Nonword,furden,1,1104,1213,14,14
603,US,Noise,Word,portal,0,0,1104,15,15
603,US,Noise,Nonword,dassing,1,1184,994,16,16
603,US,Noise,Nonword,saffing,1,928,1184,17,17
603,US,Noise,Word,asking,1,851,928,18,18
603,US,Noise,Word,loaded,1,1097,851,19,19
603,US,Noise,Word,harpist,1,1231,1097,20,20
603,US,Noise,Word,stronger,1,1157,1231,21,21
603,US,Noise,Word,posted,1,1083,1157,22,22
603,US,Noise,Nonword,fosted,0,0,1083,23,23
603,US,Noise,Nonword,garning,1,1185,994,24,24
603,US,Noise,Word,clasping,1,1274,1185,25,25
603,US,Noise,Word,warning,1,1091,1274,26,26
603,US,Noise,Word,classes,1,1270,1091,27,27
603,US,Noise,Word,cornet,0,2169,1270,28,28
603,US,Noise,Word,arming,1,1018,2169,29,29
603,US,Noise,Nonword,sprollen,1,1400,1018,30,30
603,US,Noise,Word,warden,1,1510,1400,31,31
603,US,Noise,Word,foster,0,1631,1510,32,32
603,US,Noise,Word,kernel,1,1155,1631,33,33
603,US,Noise,Nonword,furning,0,1086,1155,34,34
603,US,Noise,Nonword,brancing,1,2438,1086,35,35
603,US,Noise,Word,grasping,1,848,2438,36,36
603,US,Noise,Nonword,plorset,1,1114,848,37,37
603,US,Noise,Word,forty,0,0,1114,38,38
603,US,Noise,Nonword,poven,1,1214,994,39,39
603,US,Noise,Nonword,twokker,1,1360,1214,40,40
603,US,Noise,Word,oaky,1,2453,1360,41,41
603,US,Noise,Nonword,sersect,1,1200,2453,42,42
603,US,Noise,Word,noted,1,1312,1200,43,43
603,US,Noise,Nonword,masty,1,1906,1312,44,44
603,US,Noise,Nonword,bloppy,0,2256,1906,45,45
603,US,Noise,Nonword,frozzy,1,1248,2256,46,46
603,US,Noise,Nonword,roaning,1,1378,1248,47,47
603,US,Noise,Nonword,lorcet,1,988,1378,48,48
603,US,Noise,Word,sorry,1,1024,988,49,49
603,US,Noise,Word,prodded,0,1043,1024,50,50
603,US,Music,Word,fasting,1,1108,994,1,51
603,US,Music,Word,boxes,1,1035,1108,2,52
603,US,Music,Word,granted,1,888,1035,3,53
603,US,Music,Word,soften,1,1477,888,4,54
603,US,Music,Nonword,dorty,1,975,1477,5,55
603,US,Music,Word,early,1,1621,975,6,56
603,US,Music,Word,broken,1,873,1621,7,57
603,US,Music,Nonword,zoting,1,911,873,8,58
603,US,Music,Nonword,smoated,1,987,911,9,59
603,US,Music,Word,often,1,1175,987,10,60
603,US,Music,Nonword,kirty,1,1299,1175,11,61
603,US,Music,Word,woken,1,1097,1299,12,62
603,US,Music,Nonword,shormet,1,1025,1097,13,63
603,US,Music,Nonword,florcen,1,1246,1025,14,64
603,US,Music,Word,office,1,1049,1246,15,65
603,US,Music,Word,branches,1,1227,1049,16,66
603,US,Music,Nonword,twoppy,1,1280,1227,17,67
603,US,Music,Word,earthly,1,1119,1280,18,68
603,US,Music,Nonword,gloffle,1,861,1119,19,69
603,US,Music,Nonword,flonger,1,1123,861,20,70
603,US,Music,Word,normal,1,882,1123,21,71
603,US,Music,Nonword,zasking,1,1169,882,22,72
603,US,Music,Nonword,varling,1,904,1169,23,73
603,US,Music,Nonword,frobing,1,877,904,24,74
603,US,Music,Word,costly,1,1067,877,25,75
603,US,Music,Word,organ,1,878,1067,26,76
603,US,Music,Nonword,tarma,1,1016,878,27,77
603,US,Music,Word,profit,1,963,1016,28,78
603,US,Music,Nonword,blanting,1,914,963,29,79
603,US,Music,Word,hosting,1,955,914,30,80
603,US,Music,Word,carving,1,1009,955,31,81
603,US,Music,Nonword,chorget,1,1047,1009,32,82
603,US,Music,Nonword,rozzing,1,959,1047,33,83
603,US,Music,Nonword,sposses,1,1496,959,34,84
603,US,Music,Word,porpoise,1,1041,1496,35,85
603,US,Music,Nonword,banches,1,1029,1041,36,86
603,US,Music,Word,frozen,1,1022,1029,37,87
603,US,Music,Nonword,swonches,1,932,1022,38,88
603,US,Music,Nonword,vorden,1,941,932,39,89
603,US,Music,Word,morning,1,1134,941,40,90
603,US,Music,Word,formal,1,1018,1134,41,91
603,US,Music,Nonword,gronest,1,1197,1018,42,92
603,US,Music,Nonword,modging,1,1024,1197,43,93
603,US,Music,Nonword,boapy,1,1397,1024,44,94
603,US,Music,Word,hornet,1,1341,1397,45,95
603,US,Music,Word,sorrow,1,1360,1341,46,96
603,US,Music,Word,pardon,1,2202,1360,47,97
603,US,Music,Word,clothing,1,866,2202,48,98
603,US,Music,Nonword,glarshest,1,872,866,49,99
603,US,Music,Nonword,blerking,0,1117,872,50,100
603,US,Silence,Nonword,thoffit,1,1122,994,1,101
603,US,Silence,Nonword,smophy,1,984,1122,2,102
603,US,Silence,Word,party,0,1148,984,3,103
603,US,Silence,Nonword,spoaming,1,1001,1148,4,104
603,US,Silence,Word,lancet,0,1837,1001,5,105
603,US,Silence,Nonword,groating,1,927,1837,6,106
603,US,Silence,Word,coughing,1,1020,927,7,107
603,US,Silence,Word,perfect,1,861,1020,8,108
603,US,Silence,Nonword,tanches,1,1484,861,9,109
603,US,Silence,Nonword,zarden,1,893,1484,10,110
603,US,Silence,Word,shorten,1,893,893,11,111
603,US,Silence,Word,laughing,1,825,893,12,112
603,US,Silence,Nonword,gasking,1,986,825,13,113
603,US,Silence,Word,boating,0,874,986,14,114
603,US,Silence,Word,cosy,1,1262,874,15,115
603,US,Silence,Word,masking,1,832,1262,16,116
603,US,Silence,Word,karma,1,1008,832,17,117
603,US,Silence,Word,journey,1,1161,1008,18,118
603,US,Silence,Nonword,pranted,1,1142,1161,19,119
603,US,Silence,Nonword,garking,1,1468,1142,20,120
603,US,Silence,Word,washing,1,890,1468,21,121
603,US,Silence,Word,glasses,1,1064,890,22,122
603,US,Silence,Nonword,eardest,1,1113,1064,23,123
603,US,Silence,Nonword,foting,1,1457,1113,24,124
603,US,Silence,Nonword,yormal,1,1179,1457,25,125
603,US,Silence,Nonword,charvist,1,1198,1179,26,126
603,US,Silence,Nonword,korty,1,1062,1198,27,127
603,US,Silence,Word,parting,1,1199,1062,28,128
603,US,Silence,Word,shafting,1,1165,1199,29,129
603,US,Silence,Nonword,morbing,1,1136,1165,30,130
603,US,Silence,Nonword,narshing,1,982,1136,31,131
603,US,Silence,Word,sample,1,954,982,32,132
603,US,Silence,Word,chanting,1,1158,954,33,133
603,US,Silence,Nonword,chodded,1,872,1158,34,134
603,US,Silence,Nonword,swoded,1,1064,872,35,135
603,US,Silence,Nonword,mozing,1,956,1064,36,136
603,US,Silence,Word,coffin,1,1005,956,37,137
603,US,Silence,Nonword,fasking,1,1430,1005,38,138
603,US,Silence,Nonword,wothing,1,1048,1430,39,139
603,US,Silence,Nonword,ploxes,1,820,1048,40,140
603,US,Silence,Nonword,wancet,1,866,820,41,141
603,US,Silence,Word,casting,1,1123,866,42,142
603,US,Silence,Word,noble,1,910,1123,43,143
603,US,Silence,Word,thirty,1,1157,910,44,144
603,US,Silence,Word,burning,1,1679,1157,45,145
603,US,Silence,Word,hearty,0,1363,1679,46,146
603,US,Silence,Word,spoken,1,1005,1363,47,147
603,US,Silence,Nonword,tharving,1,1067,1005,48,148
603,US,Silence,Word,burden,1,869,1067,49,149
603,US,Silence,Nonword,kosken,1,981,869,50,150
603,NZ,Noise,Word,rotten,1,1418,994,1,151
603,NZ,Noise,Nonword,prasses,1,1021,1418,2,152
603,NZ,Noise,Word,harming,1,1003,1021,3,153
603,NZ,Noise,Word,doting,1,788,1003,4,154
603,NZ,Noise,Word,flirty,0,1485,788,5,155
603,NZ,Noise,Nonword,woney,1,1077,1485,6,156
603,NZ,Noise,Nonword,donely,1,1033,1077,7,157
603,NZ,Noise,Nonword,pasking,1,976,1033,8,158
603,NZ,Noise,Nonword,fodding,1,1098,976,9,159
603,NZ,Noise,Word,bloated,1,1047,1098,10,160
603,NZ,Noise,Nonword,dastness,1,1369,1047,11,161
603,NZ,Noise,Nonword,hasket,1,952,1369,12,162
603,NZ,Noise,Word,stopping,1,1455,952,13,163
603,NZ,Noise,Word,token,1,991,1455,14,164
603,NZ,Noise,Word,dirty,1,836,991,15,165
603,NZ,Noise,Nonword,morgeous,1,939,836,16,166
603,NZ,Noise,Word,harden,1,931,939,17,167
603,NZ,Noise,Nonword,snurchen,1,925,931,18,168
603,NZ,Noise,Nonword,vertain,1,918,925,19,169
603,NZ,Noise,Nonword,zotted,1,872,918,20,170
603,NZ,Noise,Nonword,dasping,1,999,872,21,171
603,NZ,Noise,Word,trophy,1,848,999,22,172
603,NZ,Noise,Word,clotted,1,1075,848,23,173
603,NZ,Noise,Nonword,thoving,1,1226,1075,24,174
603,NZ,Noise,Nonword,troaky,1,879,1226,25,175
603,NZ,Noise,Nonword,zosses,1,1350,879,26,176
603,NZ,Noise,Word,sporty,1,986,1350,27,177
603,NZ,Noise,Word,longing,1,1764,986,28,178
603,NZ,Noise,Word,basket,1,890,1764,29,179
603,NZ,Noise,Word,person,1,822,890,30,180
603,NZ,Noise,Nonword,purnel,1,1139,822,31,181
603,NZ,Noise,Nonword,foaping,1,999,1139,32,182
603,NZ,Noise,Nonword,zancing,1,1023,999,33,183
603,NZ,Noise,Word,squabble,1,1066,1023,34,184
603,NZ,Noise,Nonword,zarchet,1,806,1066,35,185
603,NZ,Noise,Nonword,zearning,1,882,806,36,186
603,NZ,Noise,Word,journal,1,840,882,37,187
603,NZ,Noise,Nonword,sarnel,1,863,840,38,188
603,NZ,Noise,Word,soapy,0,1217,863,39,189
603,NZ,Noise,Nonword,bozes,1,1172,1217,40,190
603,NZ,Noise,Word,yearning,1,1090,1172,41,191
603,NZ,Noise,Nonword,hoaken,1,849,1090,42,192
603,NZ,Noise,Word,soaking,1,931,849,43,193
603,NZ,Noise,Word,corpus,1,1008,931,44,194
603,NZ,Noise,Word,casket,1,943,1008,45,195
603,NZ,Noise,Nonword,koble,1,958,943,46,196
603,NZ,Noise,Nonword,broselet,1,1051,958,47,197
603,NZ,Noise,Word,portrait,1,1403,1051,48,198
603,NZ,Noise,Word,passing,1,1181,1403,49,199
603,NZ,Noise,Word,slotting,1,1076,1181,50,200
603,NZ,Music,Nonword,dwotten,1,988,994,1,201
603,NZ,Music,Word,stances,1,955,988,2,202
603,NZ,Music,Nonword,lasket,1,940,955,3,203
603,NZ,Music,Nonword,gorrow,1,767,940,4,204
603,NZ,Music,Word,lasted,1,934,767,5,205
603,NZ,Music,Nonword,blassing,1,950,934,6,206
603,NZ,Music,Word,roses,1,779,950,7,207
603,NZ,Music,Nonword,dronchel,1,1009,779,8,208
603,NZ,Music,Word,hoarding,1,1011,1009,9,209
603,NZ,Music,Word,waffle,1,886,1011,10,210
603,NZ,Music,Nonword,plarsy,0,914,886,11,211
603,NZ,Music,Nonword,skorking,1,1182,914,12,212
603,NZ,Music,Word,prancing,0,1028,1182,13,213
603,NZ,Music,Nonword,varpon,1,1524,1028,14,214
603,NZ,Music,Word,smoky,1,1041,1524,15,215
603,NZ,Music,Word,partial,1,833,1041,16,216
603,NZ,Music,Word,floating,1,1480,833,17,217
603,NZ,Music,Word,ocean,1,925,1480,18,218
603,NZ,Music,Nonword,yoster,1,1077,925,19,219
603,NZ,Music,Nonword,obbin,1,802,1077,20,220
603,NZ,Music,Word,staffing,1,1100,802,21,221
603,NZ,Music,Nonword,splaffing,1,907,1100,22,222
603,NZ,Music,Nonword,stasking,1,933,907,23,223
603,NZ,Music,Word,fasten,1,963,933,24,224
603,NZ,Music,Word,woven,1,1011,963,25,225
603,NZ,Music,Nonword,fample,1,980,1011,26,226
603,NZ,Music,Nonword,vording,1,859,980,27,227
603,NZ,Music,Word,earnest,1,791,859,28,228
603,NZ,Music,Word,certain,0,1207,791,29,229
603,NZ,Music,Nonword,ortal,1,1261,1207,30,230
603,NZ,Music,Word,arty,1,1217,1261,31,231
603,NZ,Music,Word,roading,1,1373,1217,32,232
603,NZ,Music,Word,blasting,0,995,1373,33,233
603,NZ,Music,Nonword,mernel,1,889,995,34,234
603,NZ,Music,Word,slanted,1,1078,889,35,235
603,NZ,Music,Nonword,zirty,1,1108,1078,36,236
603,NZ,Music,Word,orbit,1,856,1108,37,237
603,NZ,Music,Nonword,sasten,1,857,856,38,238
603,NZ,Music,Nonword,safting,1,999,857,39,239
603,NZ,Music,Word,losses,1,1123,999,40,240
603,NZ,Music,Nonword,ormet,1,979,1123,41,241
603,NZ,Music,Nonword,shorkel,1,943,979,42,242
603,NZ,Music,Nonword,ploguing,1,952,943,43,243
603,NZ,Music,Nonword,barvet,1,1141,952,44,244
603,NZ,Music,Word,rafting,1,1366,1141,45,245
603,NZ,Music,Nonword,praffing,1,1153,1366,46,246
603,NZ,Music,Word,notches,1,926,1153,47,247
603,NZ,Music,Word,knowledge,1,978,926,48,248
603,NZ,Music,Word,largest,1,918,978,49,249
603,NZ,Music,Nonword,kearthly,1,853,918,50,250
603,NZ,Silence,Nonword,gurky,1,1058,994,1,251
603,NZ,Silence,Word,sausage,1,944,1058,2,252
603,NZ,Silence,Word,planting,1,868,944,3,253
603,NZ,Silence,Word,drafting,1,980,868,4,254
603,NZ,Silence,Nonword,soating,1,1179,980,5,255
603,NZ,Silence,Nonword,zornet,1,911,1179,6,256
603,NZ,Silence,Word,charming,1,897,911,7,257
603,NZ,Silence,Nonword,carching,1,951,897,8,258
603,NZ,Silence,Word,coping,1,857,951,9,259
603,NZ,Silence,Nonword,groledge,1,805,857,10,260
603,NZ,Silence,Nonword,frodgen,1,857,805,11,261
603,NZ,Silence,Word,curtain,1,1030,857,12,262
603,NZ,Silence,Word,worsen,1,913,1030,13,263
603,NZ,Silence,Nonword,choathy,1,866,913,14,264
603,NZ,Silence,Nonword,snarfen,1,1295,866,15,265
603,NZ,Silence,Word,garnet,1,1160,1295,16,266
603,NZ,Silence,Nonword,soffice,1,1266,1160,17,267
603,NZ,Silence,Word,poky,1,1497,1266,18,268
603,NZ,Silence,Word,offer,1,924,1497,19,269
603,NZ,Silence,Word,gotten,1,875,924,20,270
603,NZ,Silence,Word,poaching,1,958,875,21,271
603,NZ,Silence,Word,market,1,990,958,22,272
603,NZ,Silence,Nonword,zarmest,1,834,990,23,273
603,NZ,Silence,Word,garden,1,777,834,24,274
603,NZ,Silence,Word,hoping,1,1080,777,25,275
603,NZ,Silence,Word,dancing,1,914,1080,26,276
603,NZ,Silence,Nonword,sorpoise,1,1088,914,27,277
603,NZ,Silence,Word,sharpen,1,885,1088,28,278
603,NZ,Silence,Nonword,broaded,1,952,885,29,279
603,NZ,Silence,Nonword,spasking,1,1040,952,30,280
603,NZ,Silence,Word,crafting,1,801,1040,31,281
603,NZ,Silence,Nonword,talving,1,879,801,32,282
603,NZ,Silence,Nonword,plasses,1,1114,879,33,283
603,NZ,Silence,Word,gasping,1,795,1114,34,284
603,NZ,Silence,Nonword,eargy,1,755,795,35,285
603,NZ,Silence,Word,thorny,1,864,755,36,286
603,NZ,Silence,Nonword,verlip,1,824,864,37,287
603,NZ,Silence,Word,starving,1,739,824,38,288
603,NZ,Silence,Word,lonely,1,966,739,39,289
603,NZ,Silence,Nonword,purney,1,800,966,40,290
603,NZ,Silence,Nonword,croating,1,987,800,41,291
603,NZ,Silence,Word,crosses,1,971,987,42,292
603,NZ,Silence,Nonword,chodges,1,960,971,43,293
603,NZ,Silence,Word,mortal,1,1034,960,44,294
603,NZ,Silence,Nonword,stanches,1,1183,1034,45,295
603,NZ,Silence,Nonword,plancis,1,926,1183,46,296
603,NZ,Silence,Nonword,clarny,1,822,926,47,297
603,NZ,Silence,Nonword,varsen,0,1857,822,48,298
603,NZ,Silence,Word,brothel,1,849,1857,49,299
603,NZ,Silence,Nonword,smoby,1,869,849,50,300
604,US,Noise,Nonword,gloffle,1,1457,994,1,1
604,US,Noise,Word,portal,1,968,1457,2,2
604,US,Noise,Nonword,barvet,0,1055,968,3,3
604,US,Noise,Nonword,stanches,1,1745,1055,4,4
604,US,Noise,Word,often,1,914,1745,5,5
604,US,Noise,Nonword,shoated,1,1092,914,6,6
604,US,Noise,Word,phoning,1,1147,1092,7,7
604,US,Noise,Nonword,smoated,1,1227,1147,8,8
604,US,Noise,Word,loaded,1,693,1227,9,9
604,US,Noise,Word,corpus,1,1085,693,10,10
604,US,Noise,Word,parting,1,1307,1085,11,11
604,US,Noise,Word,curtain,1,856,1307,12,12
604,US,Noise,Nonword,troaky,0,1287,856,13,13
604,US,Noise,Nonword,bozes,1,1009,1287,14,14
604,US,Noise,Nonword,chodded,1,976,1009,15,15
604,US,Noise,Word,coping,1,723,976,16,16
604,US,Noise,Word,boxes,1,800,723,17,17
604,US,Noise,Nonword,chorget,0,1085,800,18,18
604,US,Noise,Nonword,smoby,1,1086,1085,19,19
604,US,Noise,Word,crosses,1,1079,1086,20,20
604,US,Noise,Word,masking,1,882,1079,21,21
604,US,Noise,Nonword,chormel,1,1678,882,22,22
604,US,Noise,Word,arty,1,1280,1678,23,23
604,US,Noise,Nonword,purney,1,1270,1280,24,24
604,US,Noise,Nonword,fasking,0,1078,1270,25,25
604,US,Noise,Word,normal,1,717,1078,26,26
604,US,Noise,Word,burden,1,941,717,27,27
604,US,Noise,Word,hoarding,1,968,941,28,28
604,US,Noise,Word,classes,1,1269,968,29,29
604,US,Noise,Nonword,bloppy,0,917,1269,30,30
604,US,Noise,Word,worsen,1,976,917,31,31
604,US,Noise,Nonword,praffing,1,909,976,32,32
604,US,Noise,Nonword,fample,1,1562,909,33,33
604,US,Noise,Nonword,frodgen,1,1154,1562,34,34
604,US,Noise,Word,stopping,1,847,1154,35,35
604,US,Noise,Word,gasping,1,800,847,36,36
604,US,Noise,Nonword,vorden,0,1525,800,37,37
604,US,Noise,Nonword,pranted,0,1249,1525,38,38
604,US,Noise,Nonword,mernel,1,876,1249,39,39
604,US,Noise,Nonword,plarsy,1,970,876,40,40
604,US,Noise,Nonword,morbing,1,1240,970,41,41
604,US,Noise,Word,coffin,1,781,1240,42,42
604,US,Noise,Word,thorny,0,989,781,43,43
604,US,Noise,Word,foster,1,1004,989,44,44
604,US,Noise,Word,granted,1,848,1004,45,45
604,US,Noise,Word,forty,0,1090,848,46,46
604,US,Noise,Nonword,sorpoise,1,1136,1090,47,47
604,US,Noise,Nonword,chodges,0,1101,1136,48,48
604,US,Noise,Word,laughing,1,864,1101,49,49
604,US,Noise,Nonword,foaping,1,1070,864,50,50
604,US,Silence,Nonword,twokker,1,1117,994,1,51
604,US,Silence,Word,cosy,1,718,1117,2,52
604,US,Silence,Word,woven,1,852,718,3,53
604,US,Silence,Nonword,vording,1,1026,852,4,54
604,US,Silence,Nonword,zornet,1,990,1026,5,55
604,US,Silence,Nonword,choathy,1,991,990,6,56
604,US,Silence,Nonword,zirty,1,1096,991,7,57
604,US,Silence,Word,harpist,0,1216,1096,8,58
604,US,Silence,Nonword,wancet,0,1002,1216,9,59
604,US,Silence,Nonword,broaded,1,1090,1002,10,60
604,US,Silence,Word,dirty,1,841,1090,11,61
604,US,Silence,Word,fasting,1,926,841,12,62
604,US,Silence,Nonword,zarden,1,889,926,13,63
604,US,Silence,Word,charming,1,879,889,14,64
604,US,Silence,Nonword,saffing,1,962,879,15,65
604,US,Silence,Word,washing,1,662,962,16,66
604,US,Silence,Nonword,twoppy,1,949,662,17,67
604,US,Silence,Word,clothing,1,622,949,18,68
604,US,Silence,Word,warning,1,888,622,19,69
604,US,Silence,Word,shorten,1,839,888,20,70
604,US,Silence,Nonword,eargy,1,951,839,21,71
604,US,Silence,Nonword,safting,1,863,951,22,72
604,US,Silence,Word,certain,1,1206,863,23,73
604,US,Silence,Word,lonely,1,718,1206,24,74
604,US,Silence,Word,grasping,1,860,718,25,75
604,US,Silence,Word,losses,1,956,860,26,76
604,US,Silence,Nonword,tarma,1,812,956,27,77
604,US,Silence,Nonword,ploguing,1,936,812,28,78
604,US,Silence,Nonword,varsen,1,1026,936,29,79
604,US,Silence,Nonword,flonger,1,886,1026,30,80
604,US,Silence,Word,harming,1,860,886,31,81
604,US,Silence,Word,offer,1,761,860,32,82
604,US,Silence,Nonword,narshing,1,993,761,33,83
604,US,Silence,Word,porpoise,1,747,993,34,84
604,US,Silence,Word,smoky,1,808,747,35,85
604,US,Silence,Word,sample,1,905,808,36,86
604,US,Silence,Nonword,hasket,0,1297,905,37,87
604,US,Silence,Word,soapy,1,881,1297,38,88
604,US,Silence,Word,lancet,0,999,881,39,89
604,US,Silence,Word,noted,1,970,999,40,90
604,US,Silence,Nonword,fosted,1,943,970,41,91
604,US,Silence,Nonword,dastness,1,943,943,42,92
604,US,Silence,Word,poky,1,650,943,43,93
604,US,Silence,Nonword,sprollen,1,1727,650,44,94
604,US,Silence,Nonword,woney,1,1300,1727,45,95
604,US,Silence,Word,basket,1,811,1300,46,96
604,US,Silence,Nonword,stasking,1,1056,811,47,97
604,US,Silence,Word,clasping,0,795,1056,48,98
604,US,Silence,Nonword,koble,1,934,795,49,99
604,US,Silence,Nonword,wothing,1,831,934,50,100
604,US,Music,Nonword,masty,1,1277,994,1,101
604,US,Music,Word,orbit,1,1085,1277,2,102
604,US,Music,Nonword,banches,1,1003,1085,3,103
604,US,Music,Word,token,1,924,1003,4,104
604,US,Music,Word,poaching,1,820,924,5,105
604,US,Music,Word,largest,1,950,820,6,106
604,US,Music,Nonword,eardest,1,991,950,7,107
604,US,Music,Nonword,zarchet,1,874,991,8,108
604,US,Music,Nonword,gasking,1,958,874,9,109
604,US,Music,Nonword,broaming,1,1142,958,10,110
604,US,Music,Nonword,tanches,1,911,1142,11,111
604,US,Music,Word,warden,1,991,911,12,112
604,US,Music,Nonword,gorrow,1,1008,991,13,113
604,US,Music,Word,earthly,1,928,1008,14,114
604,US,Music,Nonword,sasten,0,1374,928,15,115
604,US,Music,Nonword,charvist,1,1004,1374,16,116
604,US,Music,Word,sharpen,1,819,1004,17,117
604,US,Music,Word,gotten,1,1018,819,18,118
604,US,Music,Word,rotten,1,596,1018,19,119
604,US,Music,Word,stronger,1,752,596,20,120
604,US,Music,Word,casket,1,660,752,21,121
604,US,Music,Nonword,lorcet,1,1148,660,22,122
604,US,Music,Word,costly,1,1006,1148,23,123
604,US,Music,Nonword,garning,1,1062,1006,24,124
604,US,Music,Nonword,splaffing,1,854,1062,25,125
604,US,Music,Word,posted,1,679,854,26,126
604,US,Music,Word,roses,1,1055,679,27,127
604,US,Music,Word,coffee,1,746,1055,28,128
604,US,Music,Nonword,ormet,1,1070,746,29,129
604,US,Music,Word,sorrow,1,869,1070,30,130
604,US,Music,Word,hornet,1,807,869,31,131
604,US,Music,Nonword,roaning,1,1245,807,32,132
604,US,Music,Nonword,skorking,0,1372,1245,33,133
604,US,Music,Nonword,thoffit,1,991,1372,34,134
604,US,Music,Nonword,prasses,0,856,991,35,135
604,US,Music,Word,journey,1,773,856,36,136
604,US,Music,Nonword,groledge,1,1064,773,37,137
604,US,Music,Nonword,sarnel,1,837,1064,38,138
604,US,Music,Nonword,hargy,1,1137,837,39,139
604,US,Music,Word,glasses,1,1016,1137,40,140
604,US,Music,Word,hoping,1,688,1016,41,141
604,US,Music,Word,clotted,1,622,688,42,142
604,US,Music,Nonword,foting,0,1259,622,43,143
604,US,Music,Word,casting,1,1030,1259,44,144
604,US,Music,Word,pardon,1,810,1030,45,145
604,US,Music,Nonword,furden,1,956,810,46,146
604,US,Music,Nonword,brancing,1,1006,956,47,147
604,US,Music,Word,drafting,1,683,1006,48,148
604,US,Music,Nonword,florcen,1,989,683,49,149
604,US,Music,Word,profit,0,962,989,50,150
604,NZ,Noise,Nonword,smophy,1,1298,994,1,151
604,NZ,Noise,Word,morning,1,782,1298,2,152
604,NZ,Noise,Word,sausage,1,670,782,3,153
604,NZ,Noise,Word,boating,1,660,670,4,154
604,NZ,Noise,Nonword,gronest,1,809,660,5,155
604,NZ,Noise,Nonword,fodding,0,1332,809,6,156
604,NZ,Noise,Word,market,1,844,1332,7,157
604,NZ,Noise,Word,notches,0,996,844,8,158
604,NZ,Noise,Nonword,morgeous,1,1006,996,9,159
604,NZ,Noise,Nonword,spoaming,1,939,1006,10,160
604,NZ,Noise,Nonword,dassing,1,956,939,11,161
604,NZ,Noise,Word,floating,1,820,956,12,162
604,NZ,Noise,Word,party,1,1071,820,13,163
604,NZ,Noise,Word,sporty,1,780,1071,14,164
604,NZ,Noise,Word,slotting,1,921,780,15,165
604,NZ,Noise,Nonword,poven,1,1102,921,16,166
604,NZ,Noise,Nonword,swoded,1,990,1102,17,167
604,NZ,Noise,Word,blasting,1,816,990,18,168
604,NZ,Noise,Nonword,dwotten,1,1019,816,19,169
604,NZ,Noise,Nonword,furning,0,1039,1019,20,170
604,NZ,Noise,Word,arming,1,920,1039,21,171
604,NZ,Noise,Word,journal,1,979,920,22,172
604,NZ,Noise,Word,yearning,1,827,979,23,173
604,NZ,Noise,Word,garden,1,845,827,24,174
604,NZ,Noise,Word,cornet,1,649,845,25,175
604,NZ,Noise,Word,sorry,1,844,649,26,176
604,NZ,Noise,Nonword,modging,1,1005,844,27,177
604,NZ,Noise,Word,kernel,1,713,1005,28,178
604,NZ,Noise,Word,lasted,1,790,713,29,179
604,NZ,Noise,Nonword,groating,1,943,790,30,180
604,NZ,Noise,Word,karma,1,823,943,31,181
604,NZ,Noise,Word,prodded,0,1056,823,32,182
604,NZ,Noise,Nonword,talving,1,1009,1056,33,183
604,NZ,Noise,Nonword,plorset,1,955,1009,34,184
604,NZ,Noise,Nonword,kearthly,1,963,955,35,185
604,NZ,Noise,Nonword,kosken,1,966,963,36,186
604,NZ,Noise,Nonword,shormet,1,1494,966,37,187
604,NZ,Noise,Nonword,frobing,1,792,1494,38,188
604,NZ,Noise,Word,bloated,1,732,792,39,189
604,NZ,Noise,Nonword,thwabble,1,1271,732,40,190
604,NZ,Noise,Nonword,spasking,1,995,1271,41,191
604,NZ,Noise,Word,longing,1,978,995,42,192
604,NZ,Noise,Word,passing,1,929,978,43,193
604,NZ,Noise,Nonword,dorty,1,1068,929,44,194
604,NZ,Noise,Nonword,donely,1,1253,1068,45,195
604,NZ,Noise,Nonword,zancing,0,1301,1253,46,196
604,NZ,Noise,Nonword,kirty,1,2085,1301,47,197
604,NZ,Noise,Word,branches,1,700,2085,48,198
604,NZ,Noise,Word,asking,1,818,700,49,199
604,NZ,Noise,Nonword,garking,1,924,818,50,200
604,NZ,Silence,Nonword,clarny,0,1766,994,1,201
604,NZ,Silence,Nonword,sposses,1,1017,1766,2,202
604,NZ,Silence,Nonword,snarfen,1,829,1017,3,203
604,NZ,Silence,Nonword,thoving,1,836,829,4,204
604,NZ,Silence,Word,office,1,833,836,5,205
604,NZ,Silence,Word,hearty,1,876,833,6,206
604,NZ,Silence,Word,roading,0,1260,876,7,207
604,NZ,Silence,Word,frozen,1,1104,1260,8,208
604,NZ,Silence,Word,hosting,1,768,1104,9,209
604,NZ,Silence,Word,coughing,1,716,768,10,210
604,NZ,Silence,Nonword,mozing,1,934,716,11,211
604,NZ,Silence,Nonword,shorkel,1,957,934,12,212
604,NZ,Silence,Nonword,zearning,1,892,957,13,213
604,NZ,Silence,Word,organ,1,1255,892,14,214
604,NZ,Silence,Word,perfect,1,739,1255,15,215
604,NZ,Silence,Nonword,carching,1,973,739,16,216
604,NZ,Silence,Word,broken,1,733,973,17,217
604,NZ,Silence,Word,squabble,1,960,733,18,218
604,NZ,Silence,Word,fasten,1,757,960,19,219
604,NZ,Silence,Word,noble,1,804,757,20,220
604,NZ,Silence,Word,prancing,1,972,804,21,221
604,NZ,Silence,Nonword,purnel,0,986,972,22,222
604,NZ,Silence,Word,burning,1,958,986,23,223
604,NZ,Silence,Nonword,swonches,1,941,958,24,224
604,NZ,Silence,Nonword,glarshest,1,1001,941,25,225
604,NZ,Silence,Nonword,sersect,1,1185,1001,26,226
604,NZ,Silence,Word,crafting,1,921,1185,27,227
604,NZ,Silence,Nonword,ortal,0,937,921,28,228
604,NZ,Silence,Nonword,fozen,1,997,937,29,229
604,NZ,Silence,Nonword,obbin,1,946,997,30,230
604,NZ,Silence,Word,planting,1,1284,946,31,231
604,NZ,Silence,Nonword,verlip,1,1013,1284,32,232
604,NZ,Silence,Word,carving,1,860,1013,33,233
604,NZ,Silence,Nonword,broselet,1,956,860,34,234
604,NZ,Silence,Nonword,soffice,1,1215,956,35,235
604,NZ,Silence,Word,person,1,661,1215,36,236
604,NZ,Silence,Word,partial,1,814,661,37,237
604,NZ,Silence,Nonword,pasking,1,876,814,38,238
604,NZ,Silence,Nonword,prothy,0,840,876,39,239
604,NZ,Silence,Word,dancing,1,750,840,40,240
604,NZ,Silence,Nonword,vertain,1,1188,750,41,241
604,NZ,Silence,Nonword,gurky,1,1021,1188,42,242
604,NZ,Silence,Nonword,lasket,1,1077,1021,43,243
604,NZ,Silence,Word,ocean,1,870,1077,44,244
604,NZ,Silence,Nonword,zasking,1,1216,870,45,245
604,NZ,Silence,Word,sharpest,1,960,1216,46,246
604,NZ,Silence,Word,flirty,1,743,960,47,247
604,NZ,Silence,Nonword,yormal,1,867,743,48,248
604,NZ,Silence,Word,soften,1,754,867,49,249
604,NZ,Silence,Word,shafting,1,1122,754,50,250
604,NZ,Music,Nonword,hoaken,1,807,994,1,251
604,NZ,Music,Word,mortal,1,1000,807,2,252
604,NZ,Music,Nonword,dronchel,1,860,1000,3,253
604,NZ,Music,Word,doting,1,1161,860,4,254
604,NZ,Music,Nonword,zarmest,1,765,1161,5,255
604,NZ,Music,Word,trophy,1,744,765,6,256
604,NZ,Music,Nonword,frozzy,1,775,744,7,257
604,NZ,Music,Word,oaky,1,1324,775,8,258
604,NZ,Music,Word,formal,1,969,1324,9,259
604,NZ,Music,Nonword,parshing,1,943,969,10,260
604,NZ,Music,Word,portrait,1,882,943,11,261
604,NZ,Music,Nonword,dasping,1,987,882,12,262
604,NZ,Music,Nonword,croating,1,890,987,13,263
604,NZ,Music,Nonword,snurchen,1,950,890,14,264
604,NZ,Music,Word,waffle,1,818,950,15,265
604,NZ,Music,Word,brothel,1,765,818,16,266
604,NZ,Music,Word,spoken,0,887,765,17,267
604,NZ,Music,Nonword,blerking,1,927,887,18,268
604,NZ,Music,Nonword,tharving,1,1146,927,19,269
604,NZ,Music,Nonword,zotted,1,888,1146,20,270
604,NZ,Music,Word,knowledge,1,1070,888,21,271
604,NZ,Music,Word,early,1,798,1070,22,272
604,NZ,Music,Word,woken,1,799,798,23,273
604,NZ,Music,Word,earnest,1,790,799,24,274
604,NZ,Music,Nonword,varling,1,937,790,25,275
604,NZ,Music,Nonword,zoting,1,1484,937,26,276
604,NZ,Music,Nonword,varpon,1,832,1484,27,277
604,NZ,Music,Word,staffing,1,1013,832,28,278
604,NZ,Music,Word,rafting,1,960,1013,29,279
604,NZ,Music,Nonword,zosses,1,778,960,30,280
604,NZ,Music,Nonword,plancis,1,1502,778,31,281
604,NZ,Music,Nonword,rozzing,1,809,1502,32,282
604,NZ,Music,Word,chanting,1,1013,809,33,283
604,NZ,Music,Nonword,ploxes,0,838,1013,34,284
604,NZ,Music,Word,stances,1,754,838,35,285
604,NZ,Music,Nonword,soating,1,1223,754,36,286
604,NZ,Music,Word,garnet,1,687,1223,37,287
604,NZ,Music,Word,starving,1,716,687,38,288
604,NZ,Music,Nonword,yoster,1,794,716,39,289
604,NZ,Music,Word,slanted,1,767,794,40,290
604,NZ,Music,Nonword,plasses,1,981,767,41,291
604,NZ,Music,Word,soaking,1,780,981,42,292
604,NZ,Music,Nonword,korty,1,1104,780,43,293
604,NZ,Music,Word,thirty,1,747,1104,44,294
604,NZ,Music,Nonword,blanting,0,1088,747,45,295
604,NZ,Music,Nonword,boapy,1,695,1088,46,296
604,NZ,Music,Nonword,blassing,1,1107,695,47,297
604,NZ,Music,Word,farming,1,946,1107,48,298
604,NZ,Music,Word,harden,1,1196,946,49,299
604,NZ,Music,Word,quarry,1,1006,1196,50,300
606,US,Silence,Word,hosting,1,1293,994,1,1
606,US,Silence,Word,rotten,1,932,1293,2,2
606,US,Silence,Nonword,varpon,1,1843,932,3,3
606,US,Silence,Nonword,pasking,1,1730,1843,4,4
606,US,Silence,Nonword,splaffing,1,1652,1730,5,5
606,US,Silence,Word,clotted,1,1185,1652,6,6
606,US,Silence,Word,journal,1,882,1185,7,7
606,US,Silence,Nonword,talving,1,1735,882,8,8
606,US,Silence,Word,worsen,1,2041,1735,9,9
606,US,Silence,Word,harpist,0,1570,2041,10,10
606,US,Silence,Nonword,stanches,1,2190,1570,11,11
606,US,Silence,Nonword,tarma,1,1225,2190,12,12
606,US,Silence,Nonword,soating,1,2148,1225,13,13
606,US,Silence,Word,losses,1,1227,2148,14,14
606,US,Silence,Word,thorny,1,1286,1227,15,15
606,US,Silence,Word,coffee,1,733,1286,16,16
606,US,Silence,Nonword,eargy,1,1134,733,17,17
606,US,Silence,Nonword,korty,1,1222,1134,18,18
606,US,Silence,Word,kernel,1,1298,1222,19,19
606,US,Silence,Word,notches,1,1204,1298,20,20
606,US,Silence,Nonword,morbing,1,1776,1204,21,21
606,US,Silence,Nonword,bloppy,0,1505,1776,22,22
606,US,Silence,Nonword,broaming,1,1403,1505,23,23
606,US,Silence,Word,token,1,790,1403,24,24
606,US,Silence,Nonword,brancing,1,980,790,25,25
606,US,Silence,Word,classes,1,949,980,26,26
606,US,Silence,Word,costly,1,1064,949,27,27
606,US,Silence,Nonword,wancet,0,814,1064,28,28
606,US,Silence,Word,shafting,1,973,814,29,29
606,US,Silence,Word,gasping,1,1067,973,30,30
606,US,Silence,Nonword,swoded,1,1278,1067,31,31
606,US,Silence,Nonword,boapy,1,869,1278,32,32
606,US,Silence,Word,poaching,1,774,869,33,33
606,US,Silence,Word,garnet,0,1207,774,34,34
606,US,Silence,Word,noted,1,963,1207,35,35
606,US,Silence,Nonword,rozzing,1,1117,963,36,36
606,US,Silence,Nonword,soffice,1,1203,1117,37,37
606,US,Silence,Nonword,foting,1,1878,1203,38,38
606,US,Silence,Word,loaded,1,846,1878,39,39
606,US,Silence,Nonword,troaky,1,1023,846,40,40
606,US,Silence,Word,washing,1,816,1023,41,41
606,US,Silence,Word,planting,1,966,816,42,42
606,US,Silence,Word,person,1,1479,966,43,43
606,US,Silence,Nonword,zearning,1,1402,1479,44,44
606,US,Silence,Nonword,snarfen,1,1122,1402,45,45
606,US,Silence,Word,hornet,1,893,1122,46,46
606,US,Silence,Word,broken,1,1176,893,47,47
606,US,Silence,Nonword,sersect,1,1507,1176,48,48
606,US,Silence,Nonword,vording,1,1221,1507,49,49
606,US,Silence,Nonword,groledge,1,1089,1221,50,50
606,US,Noise,Word,thirty,1,1515,994,1,51
606,US,Noise,Nonword,tharving,0,1486,1515,2,52
606,US,Noise,Nonword,safting,1,1481,1486,3,53
606,US,Noise,Nonword,sarnel,1,1212,1481,4,54
606,US,Noise,Word,arty,0,982,1212,5,55
606,US,Noise,Word,grasping,1,851,982,6,56
606,US,Noise,Word,soapy,1,1185,851,7,57
606,US,Noise,Word,masking,1,1138,1185,8,58
606,US,Noise,Word,portal,1,1012,1138,9,59
606,US,Noise,Word,staffing,1,1087,1012,10,60
606,US,Noise,Word,warning,1,1284,1087,11,61
606,US,Noise,Word,garden,1,951,1284,12,62
606,US,Noise,Word,lonely,1,863,951,13,63
606,US,Noise,Word,often,1,1149,863,14,64
606,US,Noise,Nonword,zarmest,1,1337,1149,15,65
606,US,Noise,Nonword,sasten,1,2033,1337,16,66
606,US,Noise,Nonword,gurky,1,1117,2033,17,67
606,US,Noise,Nonword,glarshest,1,891,1117,18,68
606,US,Noise,Nonword,frobing,0,1607,891,19,69
606,US,Noise,Word,slanted,1,1861,1607,20,70
606,US,Noise,Word,sausage,1,1178,1861,21,71
606,US,Noise,Nonword,zarchet,1,972,1178,22,72
606,US,Noise,Word,flirty,0,1879,972,23,73
606,US,Noise,Nonword,zirty,1,1405,1879,24,74
606,US,Noise,Word,woven,1,1419,1405,25,75
606,US,Noise,Word,organ,1,1221,1419,26,76
606,US,Noise,Nonword,roaning,1,1282,1221,27,77
606,US,Noise,Word,sorrow,0,1794,1282,28,78
606,US,Noise,Nonword,dwotten,1,1086,1794,29,79
606,US,Noise,Word,forty,0,0,1086,30,80
606,US,Noise,Word,glasses,1,1305,994,31,81
606,US,Noise,Word,posted,1,1143,1305,32,82
606,US,Noise,Nonword,spasking,1,2385,1143,33,83
606,US,Noise,Nonword,garking,0,1044,2385,34,84
606,US,Noise,Word,spoken,1,1431,1044,35,85
606,US,Noise,Nonword,thoffit,1,1002,1431,36,86
606,US,Noise,Nonword,banches,1,1696,1002,37,87
606,US,Noise,Word,stronger,1,1056,1696,38,88
606,US,Noise,Nonword,snurchen,1,951,1056,39,89
606,US,Noise,Nonword,chodges,1,978,951,40,90
606,US,Noise,Word,ocean,1,640,978,41,91
606,US,Noise,Word,boating,1,1375,640,42,92
606,US,Noise,Nonword,hargy,1,1375,1375,43,93
606,US,Noise,Nonword,zosses,1,894,1375,44,94
606,US,Noise,Nonword,ormet,1,1227,894,45,95
606,US,Noise,Word,curtain,1,1768,1227,46,96
606,US,Noise,Nonword,hasket,1,1305,1768,47,97
606,US,Noise,Nonword,groating,1,1558,1305,48,98
606,US,Noise,Nonword,kearthly,1,1593,1558,49,99
606,US,Noise,Nonword,stasking,1,2098,1593,50,100
606,US,Music,Word,journey,1,1525,994,1,101
606,US,Music,Word,fasting,1,949,1525,2,102
606,US,Music,Word,warden,1,1003,949,3,103
606,US,Music,Word,coughing,1,694,1003,4,104
606,US,Music,Word,market,1,841,694,5,105
606,US,Music,Nonword,furden,1,1277,841,6,106
606,US,Music,Nonword,yoster,1,1870,1277,7,107
606,US,Music,Nonword,spoaming,1,990,1870,8,108
606,US,Music,Nonword,kosken,1,1134,990,9,109
606,US,Music,Word,soaking,1,906,1134,10,110
606,US,Music,Nonword,broselet,1,1574,906,11,111
606,US,Music,Word,hearty,0,966,1574,12,112
606,US,Music,Word,lasted,1,1040,966,13,113
606,US,Music,Word,mortal,1,971,1040,14,114
606,US,Music,Nonword,plorset,1,1378,971,15,115
606,US,Music,Word,clasping,1,1081,1378,16,116
606,US,Music,Word,roading,0,0,1081,17,117
606,US,Music,Word,partial,1,1813,994,18,118
606,US,Music,Nonword,furning,1,1291,1813,19,119
606,US,Music,Nonword,sposses,1,1831,1291,20,120
606,US,Music,Nonword,swonches,1,1043,1831,21,121
606,US,Music,Nonword,narshing,1,1538,1043,22,122
606,US,Music,Nonword,zotted,0,1082,1538,23,123
606,US,Music,Word,crafting,1,901,1082,24,124
606,US,Music,Nonword,fasking,1,1031,901,25,125
606,US,Music,Nonword,flonger,1,939,1031,26,126
606,US,Music,Nonword,morgeous,1,1018,939,27,127
606,US,Music,Nonword,dasping,1,1059,1018,28,128
606,US,Music,Nonword,fodding,0,1905,1059,29,129
606,US,Music,Word,sample,1,930,1905,30,130
606,US,Music,Word,woken,1,985,930,31,131
606,US,Music,Nonword,plarsy,1,1502,985,32,132
606,US,Music,Word,squabble,1,1375,1502,33,133
606,US,Music,Nonword,frodgen,0,0,1375,34,134
606,US,Music,Word,formal,1,1048,994,35,135
606,US,Music,Nonword,varling,1,862,1048,36,136
606,US,Music,Word,certain,1,685,862,37,137
606,US,Music,Nonword,clarny,1,976,685,38,138
606,US,Music,Nonword,poven,1,944,976,39,139
606,US,Music,Nonword,croating,1,1331,944,40,140
606,US,Music,Word,longing,1,1126,1331,41,141
606,US,Music,Word,hoping,1,835,1126,42,142
606,US,Music,Word,earthly,1,1563,835,43,143
606,US,Music,Nonword,fosted,1,1346,1563,44,144
606,US,Music,Nonword,ploxes,1,1057,1346,45,145
606,US,Music,Word,floating,1,1232,1057,46,146
606,US,Music,Word,cornet,0,1134,1232,47,147
606,US,Music,Word,office,1,887,1134,48,148
606,US,Music,Nonword,pranted,1,990,887,49,149
606,US,Music,Word,largest,1,1036,990,50,150
606,NZ,Silence,Word,trophy,1,1052,994,1,151
606,NZ,Silence,Word,casting,1,902,1052,2,152
606,NZ,Silence,Nonword,hoaken,1,920,902,3,153
606,NZ,Silence,Word,karma,1,823,920,4,154
606,NZ,Silence,Word,basket,1,756,823,5,155
606,NZ,Silence,Word,roses,1,1121,756,6,156
606,NZ,Silence,Word,asking,1,788,1121,7,157
606,NZ,Silence,Nonword,zornet,1,942,788,8,158
606,NZ,Silence,Word,charming,1,971,942,9,159
606,NZ,Silence,Word,sporty,1,1136,971,10,160
606,NZ,Silence,Nonword,shorkel,1,1249,1136,11,161
606,NZ,Silence,Nonword,prothy,1,1585,1249,12,162
606,NZ,Silence,Word,arming,1,1288,1585,13,163
606,NZ,Silence,Word,early,1,1066,1288,14,164
606,NZ,Silence,Word,gotten,1,1085,1066,15,165
606,NZ,Silence,Nonword,ortal,0,1002,1085,16,166
606,NZ,Silence,Word,burden,1,942,1002,17,167
606,NZ,Silence,Nonword,shormet,1,1479,942,18,168
606,NZ,Silence,Word,waffle,1,941,1479,19,169
606,NZ,Silence,Word,sorry,1,1069,941,20,170
606,NZ,Silence,Word,chanting,1,1503,1069,21,171
606,NZ,Silence,Nonword,barvet,1,974,1503,22,172
606,NZ,Silence,Nonword,dorty,1,1209,974,23,173
606,NZ,Silence,Word,shorten,1,1586,1209,24,174
606,NZ,Silence,Nonword,verlip,1,1031,1586,25,175
606,NZ,Silence,Nonword,carching,1,1175,1031,26,176
606,NZ,Silence,Word,doting,0,797,1175,27,177
606,NZ,Silence,Word,dancing,1,745,797,28,178
606,NZ,Silence,Nonword,chorget,1,943,745,29,179
606,NZ,Silence,Nonword,ploguing,1,2364,943,30,180
606,NZ,Silence,Word,morning,1,943,2364,31,181
606,NZ,Silence,Nonword,obbin,1,883,943,32,182
606,NZ,Silence,Word,oaky,1,2006,883,33,183
606,NZ,Silence,Nonword,blerking,1,1794,2006,34,184
606,NZ,Silence,Word,boxes,1,1641,1794,35,185
606,NZ,Silence,Nonword,thwabble,1,1075,1641,36,186
606,NZ,Silence,Nonword,blanting,1,782,1075,37,187
606,NZ,Silence,Word,granted,1,865,782,38,188
606,NZ,Silence,Nonword,broaded,1,828,865,39,189
606,NZ,Silence,Word,harden,1,1023,828,40,190
606,NZ,Silence,Nonword,fozen,1,1576,1023,41,191
606,NZ,Silence,Word,brothel,1,1134,1576,42,192
606,NZ,Silence,Nonword,masty,1,1305,1134,43,193
606,NZ,Silence,Nonword,choathy,1,1270,1305,44,194
606,NZ,Silence,Nonword,lasket,1,1040,1270,45,195
606,NZ,Silence,Nonword,foaping,1,989,1040,46,196
606,NZ,Silence,Word,perfect,1,764,989,47,197
606,NZ,Silence,Nonword,florcen,1,1011,764,48,198
606,NZ,Silence,Nonword,chodded,1,1510,1011,49,199
606,NZ,Silence,Nonword,dassing,1,1094,1510,50,200
606,NZ,Noise,Word,fasten,1,1754,994,1,201
606,NZ,Noise,Word,coffin,1,1011,1754,2,202
606,NZ,Noise,Nonword,gasking,1,1112,1011,3,203
606,NZ,Noise,Nonword,zoting,1,1156,1112,4,204
606,NZ,Noise,Nonword,smophy,1,1374,1156,5,205
606,NZ,Noise,Nonword,smoby,1,1069,1374,6,206
606,NZ,Noise,Word,earnest,1,1540,1069,7,207
606,NZ,Noise,Word,starving,1,1761,1540,8,208
606,NZ,Noise,Word,knowledge,1,1691,1761,9,209
606,NZ,Noise,Nonword,charvist,1,1690,1691,10,210
606,NZ,Noise,Word,casket,1,1060,1690,11,211
606,NZ,Noise,Nonword,zarden,1,1200,1060,12,212
606,NZ,Noise,Nonword,shoated,0,0,1200,13,213
606,NZ,Noise,Word,corpus,0,1427,994,14,214
606,NZ,Noise,Nonword,chormel,1,1292,1427,15,215
606,NZ,Noise,Word,slotting,1,1980,1292,16,216
606,NZ,Noise,Word,crosses,1,1214,1980,17,217
606,NZ,Noise,Nonword,prasses,0,1425,1214,18,218
606,NZ,Noise,Word,parting,0,1179,1425,19,219
606,NZ,Noise,Word,noble,1,953,1179,20,220
606,NZ,Noise,Word,harming,1,2119,953,21,221
606,NZ,Noise,Nonword,kirty,1,1297,2119,22,222
606,NZ,Noise,Word,sharpen,1,1846,1297,23,223
606,NZ,Noise,Word,drafting,1,1031,1846,24,224
606,NZ,Noise,Word,laughing,1,955,1031,25,225
606,NZ,Noise,Nonword,plancis,1,1515,955,26,226
606,NZ,Noise,Word,cosy,1,1571,1515,27,227
606,NZ,Noise,Nonword,fample,0,1755,1571,28,228
606,NZ,Noise,Word,dirty,1,1311,1755,29,229
606,NZ,Noise,Word,burning,0,1093,1311,30,230
606,NZ,Noise,Nonword,purney,1,2230,1093,31,231
606,NZ,Noise,Nonword,twokker,0,0,2230,32,232
606,NZ,Noise,Word,frozen,1,1265,994,33,233
606,NZ,Noise,Word,party,1,1619,1265,34,234
606,NZ,Noise,Word,branches,1,1538,1619,35,235
606,NZ,Noise,Nonword,mozing,0,1693,1538,36,236
606,NZ,Noise,Nonword,gorrow,1,840,1693,37,237
606,NZ,Noise,Nonword,blassing,1,2155,840,38,238
606,NZ,Noise,Word,smoky,1,1200,2155,39,239
606,NZ,Noise,Word,passing,1,1006,1200,40,240
606,NZ,Noise,Nonword,zancing,0,0,1006,41,241
606,NZ,Noise,Nonword,varsen,0,879,994,42,242
606,NZ,Noise,Nonword,modging,1,1437,879,43,243
606,NZ,Noise,Nonword,twoppy,1,832,1437,44,244
606,NZ,Noise,Nonword,thoving,1,775,832,45,245
606,NZ,Noise,Word,rafting,1,773,775,46,246
606,NZ,Noise,Nonword,sprollen,1,804,773,47,247
606,NZ,Noise,Nonword,lorcet,1,1276,804,48,248
606,NZ,Noise,Word,pardon,1,1096,1276,49,249
606,NZ,Noise,Nonword,koble,1,1247,1096,50,250
606,NZ,Music,Nonword,dastness,1,1137,994,1,251
606,NZ,Music,Word,phoning,1,961,1137,2,252
606,NZ,Music,Nonword,purnel,0,680,961,3,253
606,NZ,Music,Nonword,plasses,0,1055,680,4,254
606,NZ,Music,Word,prodded,1,1122,1055,5,255
606,NZ,Music,Nonword,praffing,1,1094,1122,6,256
606,NZ,Music,Nonword,zasking,1,828,1094,7,257
606,NZ,Music,Word,profit,1,845,828,8,258
606,NZ,Music,Word,bloated,0,1056,845,9,259
606,NZ,Music,Nonword,parshing,1,1898,1056,10,260
606,NZ,Music,Nonword,sorpoise,1,1257,1898,11,261
606,NZ,Music,Word,coping,1,1364,1257,12,262
606,NZ,Music,Nonword,frozzy,0,1428,1364,13,263
606,NZ,Music,Word,porpoise,1,872,1428,14,264
606,NZ,Music,Nonword,wothing,0,1504,872,15,265
606,NZ,Music,Word,prancing,1,1331,1504,16,266
606,NZ,Music,Nonword,eardest,1,1230,1331,17,267
606,NZ,Music,Nonword,garning,1,1287,1230,18,268
606,NZ,Music,Nonword,donely,1,1055,1287,19,269
606,NZ,Music,Word,clothing,1,942,1055,20,270
606,NZ,Music,Word,stopping,1,1473,942,21,271
606,NZ,Music,Word,orbit,1,2265,1473,22,272
606,NZ,Music,Nonword,woney,1,2184,2265,23,273
606,NZ,Music,Word,lancet,0,1581,2184,24,274
606,NZ,Music,Nonword,smoated,0,0,1581,25,275
606,NZ,Music,Nonword,tanches,1,1989,994,26,276
606,NZ,Music,Nonword,gronest,1,1136,1989,27,277
606,NZ,Music,Nonword,yormal,1,1634,1136,28,278
606,NZ,Music,Word,portrait,1,2209,1634,29,279
606,NZ,Music,Nonword,mernel,1,1363,2209,30,280
606,NZ,Music,Word,stances,1,1339,1363,31,281
606,NZ,Music,Nonword,gloffle,1,1038,1339,32,282
606,NZ,Music,Word,hoarding,1,1554,1038,33,283
606,NZ,Music,Word,sharpest,1,1644,1554,34,284
606,NZ,Music,Nonword,vertain,1,2148,1644,35,285
606,NZ,Music,Nonword,saffing,1,852,2148,36,286
606,NZ,Music,Nonword,dronchel,1,904,852,37,287
606,NZ,Music,Word,blasting,0,0,904,38,288
606,NZ,Music,Nonword,bozes,1,1723,994,39,289
606,NZ,Music,Word,carving,1,1529,1723,40,290
606,NZ,Music,Nonword,vorden,1,1039,1529,41,291
606,NZ,Music,Word,offer,1,958,1039,42,292
606,NZ,Music,Word,foster,1,926,958,43,293
606,NZ,Music,Word,soften,1,729,926,44,294
606,NZ,Music,Word,quarry,1,1066,729,45,295
606,NZ,Music,Nonword,skorking,0,864,1066,46,296
606,NZ,Music,Word,normal,1,861,864,47,297
606,NZ,Music,Word,poky,0,1989,861,48,298
606,NZ,Music,Word,yearning,1,1101,1989,49,299
606,NZ,Music,Word,farming,1,1664,1101,50,300
607,US,Music,Word,dirty,1,1686,994,1,1
607,US,Music,Nonword,zoting,1,1660,1686,2,2
607,US,Music,Word,arty,1,2142,1660,3,3
607,US,Music,Nonword,varling,1,1871,2142,4,4
607,US,Music,Word,yearning,1,2139,1871,5,5
607,US,Music,Word,chanting,1,1260,2139,6,6
607,US,Music,Nonword,pranted,1,1668,1260,7,7
607,US,Music,Nonword,woney,1,1208,1668,8,8
607,US,Music,Nonword,ortal,0,2250,1208,9,9
607,US,Music,Nonword,gloffle,1,1736,2250,10,10
607,US,Music,Nonword,soating,1,1520,1736,11,11
607,US,Music,Word,soaking,0,1000,1520,12,12
607,US,Music,Nonword,dorty,0,0,1000,13,13
607,US,Music,Word,losses,1,1710,994,14,14
607,US,Music,Word,thorny,0,1910,1710,15,15
607,US,Music,Nonword,bozes,1,2153,1910,16,16
607,US,Music,Word,coffee,1,1163,2153,17,17
607,US,Music,Word,slotting,0,0,1163,18,18
607,US,Music,Word,coughing,1,1060,994,19,19
607,US,Music,Nonword,donely,1,1182,1060,20,20
607,US,Music,Word,burden,1,1261,1182,21,21
607,US,Music,Nonword,shormet,1,1924,1261,22,22
607,US,Music,Nonword,splaffing,1,1278,1924,23,23
607,US,Music,Nonword,barvet,1,2078,1278,24,24
607,US,Music,Nonword,korty,1,1880,2078,25,25
607,US,Music,Word,shorten,1,1100,1880,26,26
607,US,Music,Word,flirty,1,1608,1100,27,27
607,US,Music,Nonword,safting,1,1152,1608,28,28
607,US,Music,Word,starving,1,1096,1152,29,29
607,US,Music,Word,charming,1,889,1096,30,30
607,US,Music,Word,ocean,1,791,889,31,31
607,US,Music,Nonword,plasses,0,1061,791,32,32
607,US,Music,Word,costly,1,1156,1061,33,33
607,US,Music,Word,coping,1,924,1156,34,34
607,US,Music,Nonword,zosses,1,1196,924,35,35
607,US,Music,Word,roading,1,1277,1196,36,36
607,US,Music,Nonword,prothy,0,1365,1277,37,37
607,US,Music,Word,crosses,1,1127,1365,38,38
607,US,Music,Nonword,zasking,1,1485,1127,39,39
607,US,Music,Word,garden,1,1485,1485,40,40
607,US,Music,Nonword,thwabble,1,973,1485,41,41
607,US,Music,Nonword,kearthly,0,1352,973,42,42
607,US,Music,Nonword,bloppy,0,2261,1352,43,43
607,US,Music,Word,loaded,1,922,2261,44,44
607,US,Music,Word,portal,0,0,922,45,45
607,US,Music,Word,squabble,1,1602,994,46,46
607,US,Music,Word,morning,1,1039,1602,47,47
607,US,Music,Nonword,wancet,1,1276,1039,48,48
607,US,Music,Nonword,zearning,1,1049,1276,49,49
607,US,Music,Nonword,shoated,1,1458,1049,50,50
607,US,Noise,Nonword,pasking,0,1874,994,1,51
607,US,Noise,Word,worsen,1,1179,1874,2,52
607,US,Noise,Word,casting,1,1324,1179,3,53
607,US,Noise,Nonword,swoded,1,1018,1324,4,54
607,US,Noise,Word,clotted,0,1865,1018,5,55
607,US,Noise,Word,perfect,1,1201,1865,6,56
607,US,Noise,Nonword,chodded,1,1186,1201,7,57
607,US,Noise,Word,branches,1,1552,1186,8,58
607,US,Noise,Word,sorrow,0,2322,1552,9,59
607,US,Noise,Nonword,sersect,1,1376,2322,10,60
607,US,Noise,Word,sausage,1,1274,1376,11,61
607,US,Noise,Word,noted,1,1964,1274,12,62
607,US,Noise,Nonword,chodges,0,1424,1964,13,63
607,US,Noise,Word,sharpen,1,970,1424,14,64
607,US,Noise,Word,trophy,1,803,970,15,65
607,US,Noise,Word,notches,1,1917,803,16,66
607,US,Noise,Nonword,tarma,1,1318,1917,17,67
607,US,Noise,Nonword,fozen,1,1627,1318,18,68
607,US,Noise,Nonword,smophy,1,1327,1627,19,69
607,US,Noise,Nonword,sposses,1,1082,1327,20,70
607,US,Noise,Word,lancet,1,1816,1082,21,71
607,US,Noise,Nonword,croating,1,2005,1816,22,72
607,US,Noise,Word,hornet,1,1161,2005,23,73
607,US,Noise,Nonword,blerking,0,1017,1161,24,74
607,US,Noise,Word,rafting,1,772,1017,25,75
607,US,Noise,Nonword,dastness,1,1432,772,26,76
607,US,Noise,Nonword,obbin,1,1210,1432,27,77
607,US,Noise,Nonword,zotted,1,1097,1210,28,78
607,US,Noise,Nonword,parshing,1,1307,1097,29,79
607,US,Noise,Nonword,frobing,0,1128,1307,30,80
607,US,Noise,Nonword,choathy,1,1030,1128,31,81
607,US,Noise,Nonword,wothing,1,1753,1030,32,82
607,US,Noise,Word,bloated,1,1008,1753,33,83
607,US,Noise,Word,hearty,1,1188,1008,34,84
607,US,Noise,Word,noble,1,856,1188,35,85
607,US,Noise,Word,mortal,1,1039,856,36,86
607,US,Noise,Word,soften,0,2182,1039,37,87
607,US,Noise,Word,clothing,1,1075,2182,38,88
607,US,Noise,Nonword,mernel,1,1464,1075,39,89
607,US,Noise,Word,shafting,1,1598,1464,40,90
607,US,Noise,Nonword,gasking,1,1534,1598,41,91
607,US,Noise,Nonword,spasking,1,1481,1534,42,92
607,US,Noise,Word,journey,1,1175,1481,43,93
607,US,Noise,Word,party,1,1057,1175,44,94
607,US,Noise,Nonword,frozzy,1,1612,1057,45,95
607,US,Noise,Nonword,shorkel,1,1164,1612,46,96
607,US,Noise,Word,carving,1,1075,1164,47,97
607,US,Noise,Nonword,plorset,0,2133,1075,48,98
607,US,Noise,Word,cornet,0,2046,2133,49,99
607,US,Noise,Nonword,narshing,1,1344,2046,50,100
607,US,Silence,Nonword,chormel,1,1743,994,1,101
607,US,Silence,Word,warden,0,2302,1743,2,102
607,US,Silence,Nonword,flonger,1,1260,2302,3,103
607,US,Silence,Nonword,broselet,1,1046,1260,4,104
607,US,Silence,Nonword,kirty,1,1134,1046,5,105
607,US,Silence,Nonword,mozing,0,0,1134,6,106
607,US,Silence,Nonword,swonches,1,982,994,7,107
607,US,Silence,Word,hoping,1,1245,982,8,108
607,US,Silence,Word,normal,1,673,1245,9,109
607,US,Silence,Word,offer,1,1073,673,10,110
607,US,Silence,Word,prodded,1,803,1073,11,111
607,US,Silence,Nonword,broaming,1,2162,803,12,112
607,US,Silence,Word,staffing,1,1440,2162,13,113
607,US,Silence,Word,laughing,1,1033,1440,14,114
607,US,Silence,Nonword,varsen,1,1509,1033,15,115
607,US,Silence,Nonword,plancis,1,1359,1509,16,116
607,US,Silence,Word,blasting,0,851,1359,17,117
607,US,Silence,Nonword,poven,1,903,851,18,118
607,US,Silence,Nonword,morbing,1,1082,903,19,119
607,US,Silence,Word,broken,1,801,1082,20,120
607,US,Silence,Word,grasping,1,1037,801,21,121
607,US,Silence,Nonword,blanting,0,1221,1037,22,122
607,US,Silence,Word,profit,1,1079,1221,23,123
607,US,Silence,Word,poaching,1,842,1079,24,124
607,US,Silence,Nonword,yoster,1,1710,842,25,125
607,US,Silence,Word,drafting,1,850,1710,26,126
607,US,Silence,Nonword,charvist,1,1291,850,27,127
607,US,Silence,Nonword,zornet,1,903,1291,28,128
607,US,Silence,Word,earthly,1,1293,903,29,129
607,US,Silence,Word,office,1,1312,1293,30,130
607,US,Silence,Word,warning,1,1170,1312,31,131
607,US,Silence,Nonword,hasket,1,1314,1170,32,132
607,US,Silence,Nonword,twoppy,1,1033,1314,33,133
607,US,Silence,Nonword,hargy,1,1089,1033,34,134
607,US,Silence,Word,corpus,1,1648,1089,35,135
607,US,Silence,Word,forty,0,1239,1648,36,136
607,US,Silence,Nonword,soffice,1,2307,1239,37,137
607,US,Silence,Word,asking,1,994,2307,38,138
607,US,Silence,Word,market,1,1473,994,39,139
607,US,Silence,Nonword,gorrow,0,0,1473,40,140
607,US,Silence,Nonword,varpon,1,1023,994,41,141
607,US,Silence,Nonword,broaded,1,945,1023,42,142
607,US,Silence,Word,pardon,1,1161,945,43,143
607,US,Silence,Nonword,stanches,1,2090,1161,44,144
607,US,Silence,Word,slanted,1,1386,2090,45,145
607,US,Silence,Word,knowledge,1,1867,1386,46,146
607,US,Silence,Word,cosy,1,1255,1867,47,147
607,US,Silence,Nonword,florcen,1,1482,1255,48,148
607,US,Silence,Nonword,zirty,1,1132,1482,49,149
607,US,Silence,Word,stopping,1,1444,1132,50,150
607,NZ,Music,Nonword,groledge,1,1366,994,1,151
607,NZ,Music,Word,curtain,1,1399,1366,2,152
607,NZ,Music,Nonword,sorpoise,1,1390,1399,3,153
607,NZ,Music,Word,coffin,1,1066,1390,4,154
607,NZ,Music,Word,partial,1,837,1066,5,155
607,NZ,Music,Word,arming,1,1973,837,6,156
607,NZ,Music,Word,quarry,1,1145,1973,7,157
607,NZ,Music,Nonword,vorden,1,1159,1145,8,158
607,NZ,Music,Nonword,thoving,1,1053,1159,9,159
607,NZ,Music,Word,masking,1,905,1053,10,160
607,NZ,Music,Nonword,plarsy,0,2239,905,11,161
607,NZ,Music,Word,classes,1,1276,2239,12,162
607,NZ,Music,Nonword,dronchel,1,1059,1276,13,163
607,NZ,Music,Nonword,prasses,0,0,1059,14,164
607,NZ,Music,Word,prancing,0,0,994,15,165
607,NZ,Music,Word,portrait,1,823,994,16,166
607,NZ,Music,Word,soapy,0,1048,823,17,167
607,NZ,Music,Nonword,foaping,1,970,1048,18,168
607,NZ,Music,Nonword,garning,0,2123,970,19,169
607,NZ,Music,Word,smoky,1,1235,2123,20,170
607,NZ,Music,Nonword,snurchen,1,1142,1235,21,171
607,NZ,Music,Nonword,eargy,1,1051,1142,22,172
607,NZ,Music,Nonword,yormal,1,999,1051,23,173
607,NZ,Music,Nonword,vertain,1,990,999,24,174
607,NZ,Music,Nonword,troaky,1,995,990,25,175
607,NZ,Music,Nonword,fasking,1,1161,995,26,176
607,NZ,Music,Word,early,1,873,1161,27,177
607,NZ,Music,Word,hosting,1,990,873,28,178
607,NZ,Music,Nonword,glarshest,1,1188,990,29,179
607,NZ,Music,Nonword,hoaken,1,2344,1188,30,180
607,NZ,Music,Nonword,praffing,1,968,2344,31,181
607,NZ,Music,Word,longing,0,2384,968,32,182
607,NZ,Music,Word,poky,1,1033,2384,33,183
607,NZ,Music,Word,waffle,1,802,1033,34,184
607,NZ,Music,Nonword,dasping,1,878,802,35,185
607,NZ,Music,Word,boating,1,1472,878,36,186
607,NZ,Music,Word,certain,1,1172,1472,37,187
607,NZ,Music,Word,phoning,1,1236,1172,38,188
607,NZ,Music,Word,stances,1,911,1236,39,189
607,NZ,Music,Nonword,garking,1,1021,911,40,190
607,NZ,Music,Nonword,fosted,0,954,1021,41,191
607,NZ,Music,Nonword,masty,0,1400,954,42,192
607,NZ,Music,Nonword,morgeous,1,1166,1400,43,193
607,NZ,Music,Word,gasping,1,948,1166,44,194
607,NZ,Music,Nonword,purney,0,1044,948,45,195
607,NZ,Music,Word,porpoise,1,1366,1044,46,196
607,NZ,Music,Nonword,modging,1,1319,1366,47,197
607,NZ,Music,Word,floating,1,1018,1319,48,198
607,NZ,Music,Word,roses,1,1831,1018,49,199
607,NZ,Music,Word,basket,1,744,1831,50,200
607,NZ,Noise,Nonword,banches,0,2231,994,1,201
607,NZ,Noise,Word,formal,1,950,2231,2,202
607,NZ,Noise,Word,lonely,1,737,950,3,203
607,NZ,Noise,Nonword,frodgen,1,1340,737,4,204
607,NZ,Noise,Nonword,smoby,1,1259,1340,5,205
607,NZ,Noise,Nonword,koble,1,1003,1259,6,206
607,NZ,Noise,Word,posted,1,919,1003,7,207
607,NZ,Noise,Word,brothel,1,1146,919,8,208
607,NZ,Noise,Word,woven,1,960,1146,9,209
607,NZ,Noise,Word,dancing,1,817,960,10,210
607,NZ,Noise,Word,person,1,868,817,11,211
607,NZ,Noise,Word,often,1,949,868,12,212
607,NZ,Noise,Nonword,dwotten,1,2339,949,13,213
607,NZ,Noise,Nonword,roaning,1,884,2339,14,214
607,NZ,Noise,Word,washing,1,1221,884,15,215
607,NZ,Noise,Word,boxes,1,2315,1221,16,216
607,NZ,Noise,Word,crafting,1,837,2315,17,217
607,NZ,Noise,Nonword,carching,1,2045,837,18,218
607,NZ,Noise,Nonword,ploguing,1,1248,2045,19,219
607,NZ,Noise,Nonword,boapy,1,1057,1248,20,220
607,NZ,Noise,Nonword,fodding,1,1212,1057,21,221
607,NZ,Noise,Word,token,1,1753,1212,22,222
607,NZ,Noise,Word,kernel,1,1006,1753,23,223
607,NZ,Noise,Word,parting,1,1416,1006,24,224
607,NZ,Noise,Word,earnest,1,1285,1416,25,225
607,NZ,Noise,Nonword,zarmest,1,975,1285,26,226
607,NZ,Noise,Word,passing,1,2040,975,27,227
607,NZ,Noise,Nonword,clarny,1,2286,2040,28,228
607,NZ,Noise,Nonword,blassing,0,1538,2286,29,229
607,NZ,Noise,Nonword,smoated,0,0,1538,30,230
607,NZ,Noise,Nonword,vording,0,1834,994,31,231
607,NZ,Noise,Word,clasping,1,1441,1834,32,232
607,NZ,Noise,Word,frozen,1,1243,1441,33,233
607,NZ,Noise,Word,karma,1,2131,1243,34,234
607,NZ,Noise,Nonword,chorget,1,1048,2131,35,235
607,NZ,Noise,Word,stronger,1,992,1048,36,236
607,NZ,Noise,Nonword,eardest,1,1623,992,37,237
607,NZ,Noise,Nonword,furden,1,2226,1623,38,238
607,NZ,Noise,Word,lasted,1,1298,2226,39,239
607,NZ,Noise,Word,sorry,1,1103,1298,40,240
607,NZ,Noise,Nonword,zarden,1,1812,1103,41,241
607,NZ,Noise,Nonword,stasking,1,1265,1812,42,242
607,NZ,Noise,Nonword,zancing,1,2071,1265,43,243
607,NZ,Noise,Nonword,twokker,1,1659,2071,44,244
607,NZ,Noise,Word,farming,1,1312,1659,45,245
607,NZ,Noise,Nonword,brancing,0,891,1312,46,246
607,NZ,Noise,Word,garnet,1,1707,891,47,247
607,NZ,Noise,Word,journal,1,920,1707,48,248
607,NZ,Noise,Nonword,foting,0,1106,920,49,249
607,NZ,Noise,Nonword,groating,1,1171,1106,50,250
607,NZ,Silence,Word,woken,1,982,994,1,251
607,NZ,Silence,Nonword,lasket,1,1665,982,2,252
607,NZ,Silence,Nonword,purnel,1,2321,1665,3,253
607,NZ,Silence,Word,orbit,1,1093,2321,4,254
607,NZ,Silence,Word,casket,1,991,1093,5,255
607,NZ,Silence,Nonword,skorking,0,1141,991,6,256
607,NZ,Silence,Nonword,dassing,1,968,1141,7,257
607,NZ,Silence,Word,glasses,1,917,968,8,258
607,NZ,Silence,Word,fasting,1,1377,917,9,259
607,NZ,Silence,Nonword,sarnel,1,1106,1377,10,260
607,NZ,Silence,Word,hoarding,1,1204,1106,11,261
607,NZ,Silence,Word,harming,1,1048,1204,12,262
607,NZ,Silence,Word,doting,1,1146,1048,13,263
607,NZ,Silence,Nonword,kosken,1,1766,1146,14,264
607,NZ,Silence,Nonword,snarfen,1,1381,1766,15,265
607,NZ,Silence,Word,oaky,1,2002,1381,16,266
607,NZ,Silence,Nonword,spoaming,1,1375,2002,17,267
607,NZ,Silence,Word,fasten,1,1384,1375,18,268
607,NZ,Silence,Word,organ,1,999,1384,19,269
607,NZ,Silence,Nonword,gurky,1,1259,999,20,270
607,NZ,Silence,Word,burning,1,900,1259,21,271
607,NZ,Silence,Nonword,tharving,1,1465,900,22,272
607,NZ,Silence,Nonword,fample,1,1098,1465,23,273
607,NZ,Silence,Word,granted,1,901,1098,24,274
607,NZ,Silence,Nonword,ormet,0,2167,901,25,275
607,NZ,Silence,Nonword,sprollen,1,938,2167,26,276
607,NZ,Silence,Nonword,ploxes,0,2270,938,27,277
607,NZ,Silence,Word,gotten,1,879,2270,28,278
607,NZ,Silence,Word,rotten,1,918,879,29,279
607,NZ,Silence,Nonword,verlip,1,1592,918,30,280
607,NZ,Silence,Nonword,zarchet,1,969,1592,31,281
607,NZ,Silence,Word,planting,0,0,969,32,282
607,NZ,Silence,Nonword,sasten,1,878,994,33,283
607,NZ,Silence,Word,harpist,0,1512,878,34,284
607,NZ,Silence,Word,foster,1,1005,1512,35,285
607,NZ,Silence,Word,thirty,0,1121,1005,36,286
607,NZ,Silence,Nonword,tanches,1,1007,1121,37,287
607,NZ,Silence,Nonword,furning,1,2347,1007,38,288
607,NZ,Silence,Nonword,lorcet,1,2295,2347,39,289
607,NZ,Silence,Nonword,talving,1,1226,2295,40,290
607,NZ,Silence,Word,sample,1,1197,1226,41,291
607,NZ,Silence,Word,sporty,1,1091,1197,42,292
607,NZ,Silence,Nonword,saffing,1,1899,1091,43,293
607,NZ,Silence,Nonword,thoffit,1,1486,1899,44,294
607,NZ,Silence,Nonword,rozzing,1,1515,1486,45,295
607,NZ,Silence,Nonword,gronest,1,1008,1515,46,296
607,NZ,Silence,Word,spoken,1,1269,1008,47,297
607,NZ,Silence,Word,harden,1,1035,1269,48,298
607,NZ,Silence,Word,largest,1,863,1035,49,299
607,NZ,Silence,Word,sharpest,1,1012,863,50,300
608,NZ,Music,Word,garnet,1,1461,994,1,1
608,NZ,Music,Word,blasting,1,1948,1461,2,2
608,NZ,Music,Nonword,carching,1,1210,1948,3,3
608,NZ,Music,Nonword,gurky,1,1072,1210,4,4
608,NZ,Music,Nonword,sposses,1,1189,1072,5,5
608,NZ,Music,Word,partial,1,740,1189,6,6
608,NZ,Music,Nonword,ploxes,0,954,740,7,7
608,NZ,Music,Word,hornet,1,920,954,8,8
608,NZ,Music,Word,doting,1,846,920,9,9
608,NZ,Music,Word,dancing,1,726,846,10,10
608,NZ,Music,Word,yearning,0,1195,726,11,11
608,NZ,Music,Nonword,fosted,0,1593,1195,12,12
608,NZ,Music,Nonword,barvet,1,1572,1593,13,13
608,NZ,Music,Nonword,florcen,1,1096,1572,14,14
608,NZ,Music,Word,party,1,795,1096,15,15
608,NZ,Music,Nonword,yormal,1,985,795,16,16
608,NZ,Music,Word,branches,0,1043,985,17,17
608,NZ,Music,Word,clotted,1,836,1043,18,18
608,NZ,Music,Word,cornet,1,1372,836,19,19
608,NZ,Music,Word,lonely,1,816,1372,20,20
608,NZ,Music,Nonword,zotted,1,829,816,21,21
608,NZ,Music,Nonword,chormel,1,971,829,22,22
608,NZ,Music,Word,garden,1,853,971,23,23
608,NZ,Music,Word,earthly,1,756,853,24,24
608,NZ,Music,Word,soapy,0,889,756,25,25
608,NZ,Music,Word,laughing,1,816,889,26,26
608,NZ,Music,Nonword,fasking,1,906,816,27,27
608,NZ,Music,Nonword,talving,1,942,906,28,28
608,NZ,Music,Nonword,kirty,1,917,942,29,29
608,NZ,Music,Word,pardon,1,807,917,30,30
608,NZ,Music,Nonword,groledge,1,777,807,31,31
608,NZ,Music,Word,arty,1,1376,777,32,32
608,NZ,Music,Nonword,morgeous,1,946,1376,33,33
608,NZ,Music,Word,thirty,1,2025,946,34,34
608,NZ,Music,Nonword,stasking,1,1173,2025,35,35
608,NZ,Music,Nonword,zearning,1,774,1173,36,36
608,NZ,Music,Nonword,varpon,1,854,774,37,37
608,NZ,Music,Word,knowledge,1,776,854,38,38
608,NZ,Music,Nonword,ortal,1,907,776,39,39
608,NZ,Music,Word,classes,1,887,907,40,40
608,NZ,Music,Nonword,plancis,1,874,887,41,41
608,NZ,Music,Nonword,sprollen,1,1017,874,42,42
608,NZ,Music,Word,lancet,1,1358,1017,43,43
608,NZ,Music,Word,sorry,1,1165,1358,44,44
608,NZ,Music,Word,gotten,1,1541,1165,45,45
608,NZ,Music,Nonword,twokker,1,848,1541,46,46
608,NZ,Music,Nonword,troaky,1,967,848,47,47
608,NZ,Music,Word,casket,1,968,967,48,48
608,NZ,Music,Nonword,shorkel,1,1508,968,49,49
608,NZ,Music,Nonword,zoting,1,966,1508,50,50
608,NZ,Silence,Word,clasping,1,1553,994,1,51
608,NZ,Silence,Nonword,banches,1,839,1553,2,52
608,NZ,Silence,Nonword,blanting,1,1003,839,3,53
608,NZ,Silence,Word,portal,1,733,1003,4,54
608,NZ,Silence,Nonword,skorking,0,0,733,5,55
608,NZ,Silence,Nonword,pranted,1,1021,994,6,56
608,NZ,Silence,Word,lasted,1,994,1021,7,57
608,NZ,Silence,Word,floating,1,784,994,8,58
608,NZ,Silence,Word,noted,1,820,784,9,59
608,NZ,Silence,Word,warning,1,767,820,10,60
608,NZ,Silence,Nonword,charvist,1,942,767,11,61
608,NZ,Silence,Word,crosses,1,841,942,12,62
608,NZ,Silence,Nonword,tarma,1,1390,841,13,63
608,NZ,Silence,Word,granted,1,698,1390,14,64
608,NZ,Silence,Nonword,parshing,1,1023,698,15,65
608,NZ,Silence,Word,sharpest,1,922,1023,16,66
608,NZ,Silence,Nonword,saffing,1,1232,922,17,67
608,NZ,Silence,Word,frozen,1,607,1232,18,68
608,NZ,Silence,Word,glasses,1,711,607,19,69
608,NZ,Silence,Nonword,vertain,1,822,711,20,70
608,NZ,Silence,Nonword,fozen,1,915,822,21,71
608,NZ,Silence,Nonword,safting,1,920,915,22,72
608,NZ,Silence,Word,waffle,1,816,920,23,73
608,NZ,Silence,Nonword,chorget,1,814,816,24,74
608,NZ,Silence,Word,oaky,1,1380,814,25,75
608,NZ,Silence,Nonword,ploguing,1,816,1380,26,76
608,NZ,Silence,Word,curtain,1,866,816,27,77
608,NZ,Silence,Word,losses,1,1011,866,28,78
608,NZ,Silence,Word,sausage,1,755,1011,29,79
608,NZ,Silence,Word,journal,1,787,755,30,80
608,NZ,Silence,Nonword,groating,1,875,787,31,81
608,NZ,Silence,Word,grasping,1,806,875,32,82
608,NZ,Silence,Nonword,zarmest,1,870,806,33,83
608,NZ,Silence,Nonword,swonches,1,992,870,34,84
608,NZ,Silence,Word,journey,1,762,992,35,85
608,NZ,Silence,Word,profit,1,700,762,36,86
608,NZ,Silence,Word,coping,1,900,700,37,87
608,NZ,Silence,Nonword,praffing,1,893,900,38,88
608,NZ,Silence,Word,early,1,770,893,39,89
608,NZ,Silence,Nonword,woney,1,968,770,40,90
608,NZ,Silence,Word,carving,1,861,968,41,91
608,NZ,Silence,Nonword,dronchel,1,761,861,42,92
608,NZ,Silence,Nonword,prothy,0,824,761,43,93
608,NZ,Silence,Word,perfect,1,696,824,44,94
608,NZ,Silence,Nonword,lorcet,1,896,696,45,95
608,NZ,Silence,Nonword,hoaken,1,1055,896,46,96
608,NZ,Silence,Nonword,dorty,1,892,1055,47,97
608,NZ,Silence,Nonword,foting,0,838,892,48,98
608,NZ,Silence,Nonword,tharving,1,1039,838,49,99
608,NZ,Silence,Word,harming,1,1033,1039,50,100
608,NZ,Noise,Nonword,zarchet,1,879,994,1,101
608,NZ,Noise,Nonword,koble,1,785,879,2,102
608,NZ,Noise,Word,trophy,0,652,785,3,103
608,NZ,Noise,Word,sporty,1,811,652,4,104
608,NZ,Noise,Nonword,sorpoise,1,987,811,5,105
608,NZ,Noise,Word,sample,1,1027,987,6,106
608,NZ,Noise,Word,mortal,1,944,1027,7,107
608,NZ,Noise,Word,office,1,732,944,8,108
608,NZ,Noise,Nonword,varsen,1,955,732,9,109
608,NZ,Noise,Word,hearty,1,1165,955,10,110
608,NZ,Noise,Nonword,brancing,1,1157,1165,11,111
608,NZ,Noise,Word,gasping,1,858,1157,12,112
608,NZ,Noise,Nonword,broaded,1,1059,858,13,113
608,NZ,Noise,Nonword,donely,1,1034,1059,14,114
608,NZ,Noise,Word,prancing,0,1131,1034,15,115
608,NZ,Noise,Word,often,1,754,1131,16,116
608,NZ,Noise,Word,harpist,1,943,754,17,117
608,NZ,Noise,Word,karma,1,808,943,18,118
608,NZ,Noise,Nonword,eargy,1,1217,808,19,119
608,NZ,Noise,Word,orbit,0,876,1217,20,120
608,NZ,Noise,Word,soften,1,779,876,21,121
608,NZ,Noise,Nonword,hasket,0,993,779,22,122
608,NZ,Noise,Nonword,wancet,0,1228,993,23,123
608,NZ,Noise,Nonword,sersect,1,1121,1228,24,124
608,NZ,Noise,Nonword,gasking,0,755,1121,25,125
608,NZ,Noise,Nonword,poven,1,1248,755,26,126
608,NZ,Noise,Nonword,dassing,1,915,1248,27,127
608,NZ,Noise,Word,sorrow,1,824,915,28,128
608,NZ,Noise,Nonword,gloffle,1,866,824,29,129
608,NZ,Noise,Nonword,pasking,1,1014,866,30,130
608,NZ,Noise,Word,basket,1,837,1014,31,131
608,NZ,Noise,Word,dirty,1,733,837,32,132
608,NZ,Noise,Nonword,splaffing,1,890,733,33,133
608,NZ,Noise,Word,slanted,1,804,890,34,134
608,NZ,Noise,Word,certain,0,908,804,35,135
608,NZ,Noise,Word,passing,1,1800,908,36,136
608,NZ,Noise,Word,hosting,1,772,1800,37,137
608,NZ,Noise,Nonword,chodges,1,819,772,38,138
608,NZ,Noise,Word,flirty,1,1157,819,39,139
608,NZ,Noise,Word,parting,1,1053,1157,40,140
608,NZ,Noise,Nonword,furden,0,1063,1053,41,141
608,NZ,Noise,Nonword,plarsy,0,1271,1063,42,142
608,NZ,Noise,Nonword,thoffit,1,783,1271,43,143
608,NZ,Noise,Word,market,1,885,783,44,144
608,NZ,Noise,Nonword,smoby,1,1028,885,45,145
608,NZ,Noise,Nonword,garning,0,0,1028,46,146
608,NZ,Noise,Nonword,twoppy,1,832,994,47,147
608,NZ,Noise,Word,thorny,1,805,832,48,148
608,NZ,Noise,Word,asking,1,939,805,49,149
608,NZ,Noise,Nonword,gronest,1,887,939,50,150
608,US,Music,Nonword,spoaming,1,1320,994,1,151
608,US,Music,Nonword,mernel,1,927,1320,2,152
608,US,Music,Word,broken,1,724,927,3,153
608,US,Music,Nonword,snarfen,1,878,724,4,154
608,US,Music,Word,foster,1,1530,878,5,155
608,US,Music,Nonword,kosken,1,973,1530,6,156
608,US,Music,Word,roses,1,809,973,7,157
608,US,Music,Word,loaded,1,704,809,8,158
608,US,Music,Nonword,blerking,1,778,704,9,159
608,US,Music,Nonword,glarshest,1,786,778,10,160
608,US,Music,Word,squabble,1,1110,786,11,161
608,US,Music,Word,chanting,1,859,1110,12,162
608,US,Music,Word,stronger,1,877,859,13,163
608,US,Music,Nonword,garking,1,938,877,14,164
608,US,Music,Nonword,smoated,1,894,938,15,165
608,US,Music,Nonword,croating,1,896,894,16,166
608,US,Music,Nonword,obbin,1,1113,896,17,167
608,US,Music,Word,poaching,1,758,1113,18,168
608,US,Music,Nonword,frozzy,1,879,758,19,169
608,US,Music,Word,noble,1,809,879,20,170
608,US,Music,Word,roading,0,948,809,21,171
608,US,Music,Word,morning,1,856,948,22,172
608,US,Music,Nonword,soffice,1,1219,856,23,173
608,US,Music,Nonword,gorrow,1,944,1219,24,174
608,US,Music,Word,soaking,1,892,944,25,175
608,US,Music,Nonword,fodding,1,845,892,26,176
608,US,Music,Word,staffing,1,906,845,27,177
608,US,Music,Nonword,dastness,0,1220,906,28,178
608,US,Music,Word,stopping,1,834,1220,29,179
608,US,Music,Word,shorten,1,1164,834,30,180
608,US,Music,Nonword,shoated,1,1033,1164,31,181
608,US,Music,Nonword,frobing,1,821,1033,32,182
608,US,Music,Word,prodded,1,1005,821,33,183
608,US,Music,Word,smoky,1,932,1005,34,184
608,US,Music,Word,burning,1,735,932,35,185
608,US,Music,Word,longing,1,781,735,36,186
608,US,Music,Nonword,korty,1,1301,781,37,187
608,US,Music,Word,planting,1,760,1301,38,188
608,US,Music,Word,worsen,1,673,760,39,189
608,US,Music,Nonword,foaping,1,978,673,40,190
608,US,Music,Nonword,zosses,1,768,978,41,191
608,US,Music,Word,phoning,1,1235,768,42,192
608,US,Music,Nonword,zasking,1,814,1235,43,193
608,US,Music,Nonword,broaming,1,958,814,44,194
608,US,Music,Word,corpus,0,898,958,45,195
608,US,Music,Word,coffee,1,703,898,46,196
608,US,Music,Nonword,narshing,1,883,703,47,197
608,US,Music,Word,boxes,1,2161,883,48,198
608,US,Music,Nonword,zirty,1,968,2161,49,199
608,US,Music,Nonword,spasking,1,1162,968,50,200
608,US,Silence,Word,posted,1,833,994,1,201
608,US,Silence,Word,hoping,1,706,833,2,202
608,US,Silence,Nonword,kearthly,1,835,706,3,203
608,US,Silence,Nonword,choathy,1,837,835,4,204
608,US,Silence,Nonword,vording,1,901,837,5,205
608,US,Silence,Nonword,eardest,1,1024,901,6,206
608,US,Silence,Word,clothing,1,893,1024,7,207
608,US,Silence,Word,ocean,1,611,893,8,208
608,US,Silence,Word,starving,1,903,611,9,209
608,US,Silence,Nonword,plorset,1,982,903,10,210
608,US,Silence,Nonword,snurchen,1,922,982,11,211
608,US,Silence,Word,warden,0,2238,922,12,212
608,US,Silence,Nonword,masty,0,0,2238,13,213
608,US,Silence,Word,spoken,1,978,994,14,214
608,US,Silence,Word,poky,1,977,978,15,215
608,US,Silence,Nonword,swoded,1,848,977,16,216
608,US,Silence,Nonword,bloppy,1,1305,848,17,217
608,US,Silence,Word,harden,1,819,1305,18,218
608,US,Silence,Word,quarry,0,755,819,19,219
608,US,Silence,Word,charming,1,905,755,20,220
608,US,Silence,Nonword,soating,1,1117,905,21,221
608,US,Silence,Word,organ,1,756,1117,22,222
608,US,Silence,Nonword,dwotten,1,766,756,23,223
608,US,Silence,Nonword,prasses,0,1015,766,24,224
608,US,Silence,Word,woven,1,708,1015,25,225
608,US,Silence,Word,woken,1,808,708,26,226
608,US,Silence,Word,brothel,0,0,808,27,227
608,US,Silence,Word,washing,1,724,994,28,228
608,US,Silence,Nonword,smophy,1,922,724,29,229
608,US,Silence,Word,normal,1,817,922,30,230
608,US,Silence,Nonword,thwabble,1,717,817,31,231
608,US,Silence,Nonword,bozes,1,1006,717,32,232
608,US,Silence,Word,fasting,1,964,1006,33,233
608,US,Silence,Word,fasten,1,896,964,34,234
608,US,Silence,Nonword,purnel,1,836,896,35,235
608,US,Silence,Nonword,modging,1,813,836,36,236
608,US,Silence,Nonword,verlip,1,937,813,37,237
608,US,Silence,Nonword,stanches,1,957,937,38,238
608,US,Silence,Word,bloated,1,715,957,39,239
608,US,Silence,Word,portrait,1,782,715,40,240
608,US,Silence,Nonword,sasten,1,985,782,41,241
608,US,Silence,Word,offer,1,801,985,42,242
608,US,Silence,Word,slotting,1,1130,801,43,243
608,US,Silence,Word,masking,1,816,1130,44,244
608,US,Silence,Nonword,broselet,1,927,816,45,245
608,US,Silence,Word,arming,1,957,927,46,246
608,US,Silence,Nonword,blassing,1,1138,957,47,247
608,US,Silence,Nonword,frodgen,1,893,1138,48,248
608,US,Silence,Nonword,boapy,1,1028,893,49,249
608,US,Silence,Nonword,hargy,1,976,1028,50,250
608,US,Noise,Nonword,tanches,1,990,994,1,251
608,US,Noise,Word,formal,1,1599,990,2,252
608,US,Noise,Nonword,chodded,1,765,1599,3,253
608,US,Noise,Nonword,zarden,1,697,765,4,254
608,US,Noise,Word,rotten,1,892,697,5,255
608,US,Noise,Nonword,zancing,1,855,892,6,256
608,US,Noise,Word,shafting,1,890,855,7,257
608,US,Noise,Word,earnest,1,726,890,8,258
608,US,Noise,Nonword,ormet,1,851,726,9,259
608,US,Noise,Nonword,zornet,1,785,851,10,260
608,US,Noise,Word,stances,1,988,785,11,261
608,US,Noise,Word,hoarding,1,942,988,12,262
608,US,Noise,Nonword,vorden,1,1207,942,13,263
608,US,Noise,Word,notches,0,777,1207,14,264
608,US,Noise,Word,drafting,1,808,777,15,265
608,US,Noise,Word,cosy,1,844,808,16,266
608,US,Noise,Nonword,sarnel,1,897,844,17,267
608,US,Noise,Word,coffin,1,876,897,18,268
608,US,Noise,Nonword,rozzing,1,936,876,19,269
608,US,Noise,Nonword,varling,1,879,936,20,270
608,US,Noise,Word,token,1,811,879,21,271
608,US,Noise,Nonword,flonger,1,938,811,22,272
608,US,Noise,Word,largest,1,1063,938,23,273
608,US,Noise,Word,crafting,1,943,1063,24,274
608,US,Noise,Nonword,shormet,1,927,943,25,275
608,US,Noise,Word,burden,1,750,927,26,276
608,US,Noise,Nonword,lasket,1,1000,750,27,277
608,US,Noise,Nonword,purney,0,1049,1000,28,278
608,US,Noise,Word,sharpen,1,825,1049,29,279
608,US,Noise,Word,forty,0,2350,825,30,280
608,US,Noise,Word,boating,0,969,2350,31,281
608,US,Noise,Nonword,mozing,1,1441,969,32,282
608,US,Noise,Word,rafting,1,996,1441,33,283
608,US,Noise,Nonword,furning,0,1956,996,34,284
608,US,Noise,Word,kernel,0,1052,1956,35,285
608,US,Noise,Word,casting,1,1157,1052,36,286
608,US,Noise,Nonword,plasses,1,1101,1157,37,287
608,US,Noise,Word,costly,1,1066,1101,38,288
608,US,Noise,Nonword,wothing,1,915,1066,39,289
608,US,Noise,Word,porpoise,1,1513,915,40,290
608,US,Noise,Nonword,roaning,1,1439,1513,41,291
608,US,Noise,Nonword,fample,1,1032,1439,42,292
608,US,Noise,Nonword,morbing,1,1267,1032,43,293
608,US,Noise,Word,person,1,881,1267,44,294
608,US,Noise,Word,coughing,1,984,881,45,295
608,US,Noise,Nonword,thoving,1,927,984,46,296
608,US,Noise,Nonword,clarny,1,822,927,47,297
608,US,Noise,Nonword,yoster,1,815,822,48,298
608,US,Noise,Nonword,dasping,1,1022,815,49,299
608,US,Noise,Word,farming,1,964,1022,50,300
609,NZ,Noise,Word,yearning,0,1236,994,1,1
609,NZ,Noise,Word,notches,0,1481,1236,2,2
609,NZ,Noise,Nonword,broaded,1,1130,1481,3,3
609,NZ,Noise,Nonword,kearthly,1,1118,1130,4,4
609,NZ,Noise,Nonword,shorkel,1,1491,1118,5,5
609,NZ,Noise,Nonword,sersect,1,1433,1491,6,6
609,NZ,Noise,Nonword,chormel,1,1223,1433,7,7
609,NZ,Noise,Word,portrait,1,1229,1223,8,8
609,NZ,Noise,Nonword,koble,1,968,1229,9,9
609,NZ,Noise,Word,washing,1,734,968,10,10
609,NZ,Noise,Word,journal,1,789,734,11,11
609,NZ,Noise,Word,hoping,1,929,789,12,12
609,NZ,Noise,Nonword,varling,1,921,929,13,13
609,NZ,Noise,Word,knowledge,1,978,921,14,14
609,NZ,Noise,Nonword,blerking,1,820,978,15,15
609,NZ,Noise,Word,losses,0,906,820,16,16
609,NZ,Noise,Nonword,troaky,1,993,906,17,17
609,NZ,Noise,Word,squabble,1,1126,993,18,18
609,NZ,Noise,Word,branches,0,1294,1126,19,19
609,NZ,Noise,Word,sharpest,1,1372,1294,20,20
609,NZ,Noise,Nonword,dwotten,1,1096,1372,21,21
609,NZ,Noise,Nonword,zarmest,1,791,1096,22,22
609,NZ,Noise,Nonword,zasking,1,912,791,23,23
609,NZ,Noise,Nonword,vording,0,1023,912,24,24
609,NZ,Noise,Word,boxes,1,910,1023,25,25
609,NZ,Noise,Nonword,vorden,1,837,910,26,26
609,NZ,Noise,Nonword,shormet,1,940,837,27,27
609,NZ,Noise,Word,prodded,0,1145,940,28,28
609,NZ,Noise,Nonword,gloffle,1,873,1145,29,29
609,NZ,Noise,Nonword,zosses,1,1009,873,30,30
609,NZ,Noise,Word,posted,1,906,1009,31,31
609,NZ,Noise,Nonword,lorcet,1,890,906,32,32
609,NZ,Noise,Word,spoken,1,916,890,33,33
609,NZ,Noise,Word,carving,1,835,916,34,34
609,NZ,Noise,Word,corpus,0,934,835,35,35
609,NZ,Noise,Nonword,dastness,1,1009,934,36,36
609,NZ,Noise,Nonword,tharving,1,1210,1009,37,37
609,NZ,Noise,Word,early,1,722,1210,38,38
609,NZ,Noise,Word,journey,1,861,722,39,39
609,NZ,Noise,Word,masking,1,1081,861,40,40
609,NZ,Noise,Nonword,frobing,1,829,1081,41,41
609,NZ,Noise,Nonword,fample,0,949,829,42,42
609,NZ,Noise,Word,charming,1,653,949,43,43
609,NZ,Noise,Nonword,pranted,0,1245,653,44,44
609,NZ,Noise,Word,arty,1,921,1245,45,45
609,NZ,Noise,Word,harpist,0,1034,921,46,46
609,NZ,Noise,Word,morning,1,820,1034,47,47
609,NZ,Noise,Nonword,dasping,1,830,820,48,48
609,NZ,Noise,Word,certain,1,958,830,49,49
609,NZ,Noise,Nonword,morgeous,1,1073,958,50,50
609,NZ,Music,Nonword,foaping,1,840,994,1,51
609,NZ,Music,Word,office,1,712,840,2,52
609,NZ,Music,Word,slanted,1,869,712,3,53
609,NZ,Music,Word,costly,1,972,869,4,54
609,NZ,Music,Nonword,charvist,1,913,972,5,55
609,NZ,Music,Word,portal,1,997,913,6,56
609,NZ,Music,Word,thirty,1,1017,997,7,57
609,NZ,Music,Nonword,eargy,1,844,1017,8,58
609,NZ,Music,Nonword,blanting,1,902,844,9,59
609,NZ,Music,Word,laughing,1,814,902,10,60
609,NZ,Music,Word,lancet,0,917,814,11,61
609,NZ,Music,Nonword,gasking,0,860,917,12,62
609,NZ,Music,Word,sorrow,1,986,860,13,63
