Participant,Condition,StimStep,StimLength,PrevStimStep,Response,RT,Trial24,Trial72,Resp
601,Noise,4,Short,4,0,1100,1,1,0
601,Noise,5,Short,4,1,738,2,2,1
601,Noise,2,Long,5,0,668,3,3,0
601,Noise,6,Short,2,1,554,4,4,1
601,Noise,5,Long,6,1,629,5,5,1
601,Noise,3,Short,5,1,1019,6,6,1
601,Noise,1,Long,3,0,638,7,7,0
601,Noise,3,Long,1,0,1066,8,8,0
601,Noise,1,Short,3,0,664,9,9,0
601,Noise,6,Long,1,1,645,10,10,1
601,Noise,4,Long,6,1,834,11,11,1
601,Noise,2,Short,4,0,613,12,12,0
601,Noise,4,Long,2,1,662,13,13,1
601,Noise,4,Short,4,0,739,14,14,0
601,Noise,1,Short,4,0,761,15,15,0
601,Noise,2,Short,1,0,714,16,16,0
601,Noise,3,Long,2,1,869,17,17,1
601,Noise,6,Long,3,1,1202,18,18,1
601,Noise,6,Short,6,1,763,19,19,1
601,Noise,5,Short,6,1,714,20,20,1
601,Noise,2,Long,5,0,737,21,21,0
601,Noise,1,Long,2,0,857,22,22,0
601,Noise,5,Long,1,1,730,23,23,1
601,Noise,3,Short,5,0,926,24,24,0
601,Music,4,Short,4,1,633,1,25,1
601,Music,3,Long,4,0,667,2,26,0
601,Music,2,Long,3,0,820,3,27,0
601,Music,2,Short,2,0,698,4,28,0
601,Music,6,Short,2,1,571,5,29,1
601,Music,3,Short,6,0,602,6,30,0
601,Music,1,Long,3,0,767,7,31,0
601,Music,5,Short,1,1,657,8,32,1
601,Music,4,Long,5,1,660,9,33,1
601,Music,1,Short,4,0,586,10,34,0
601,Music,6,Long,1,1,572,11,35,1
601,Music,5,Long,6,1,906,12,36,1
601,Music,3,Short,5,0,585,13,37,0
601,Music,1,Short,3,0,609,14,38,0
601,Music,4,Long,1,1,673,15,39,1
601,Music,5,Short,4,1,820,16,40,1
601,Music,6,Long,5,1,903,17,41,1
601,Music,2,Short,6,0,611,18,42,0
601,Music,3,Long,2,0,848,19,43,0
601,Music,5,Long,3,1,794,20,44,1
601,Music,2,Long,5,0,726,21,45,0
601,Music,6,Short,2,1,666,22,46,1
601,Music,4,Short,6,1,1150,23,47,1
601,Music,1,Long,4,0,533,24,48,0
601,Silence,4,Short,4,1,1048,1,49,1
601,Silence,6,Long,4,1,751,2,50,1
601,Silence,4,Long,6,1,718,3,51,1
601,Silence,2,Short,4,0,639,4,52,0
601,Silence,5,Short,2,1,820,5,53,1
601,Silence,3,Long,5,0,663,6,54,0
601,Silence,5,Long,3,1,721,7,55,1
601,Silence,6,Short,5,1,824,8,56,1
601,Silence,1,Short,6,0,686,9,57,0
601,Silence,2,Long,1,0,770,10,58,0
601,Silence,3,Short,2,0,709,11,59,0
601,Silence,1,Long,3,0,784,12,60,0
601,Silence,2,Long,1,0,799,13,61,0
601,Silence,6,Short,2,1,794,14,62,1
601,Silence,6,Long,6,1,812,15,63,1
601,Silence,2,Short,6,0,758,16,64,0
601,Silence,4,Long,2,1,682,17,65,1
601,Silence,4,Short,4,1,812,18,66,1
601,Silence,5,Long,4,1,798,19,67,1
601,Silence,3,Short,5,1,1175,20,68,1
601,Silence,1,Long,3,0,629,21,69,0
601,Silence,5,Short,1,1,826,22,70,1
601,Silence,1,Short,5,0,728,23,71,0
601,Silence,3,Long,1,1,785,24,72,1
602,Noise,4,Short,4,1,1011,1,1,1
602,Noise,1,Short,4,0,825,2,2,0
602,Noise,3,Long,1,1,852,3,3,1
602,Noise,5,Long,3,1,816,4,4,1
602,Noise,6,Long,5,1,775,5,5,1
602,Noise,5,Short,6,1,764,6,6,1
602,Noise,4,Long,5,1,1021,7,7,1
602,Noise,6,Short,4,1,1127,8,8,1
602,Noise,2,Long,6,0,840,9,9,0
602,Noise,3,Short,2,0,809,10,10,0
602,Noise,2,Short,3,0,712,11,11,0
602,Noise,1,Long,2,0,830,12,12,0
602,Noise,6,Short,1,1,894,13,13,1
602,Noise,6,Long,6,1,819,14,14,1
602,Noise,4,Long,6,0,1007,15,15,0
602,Noise,5,Long,4,1,800,16,16,1
602,Noise,3,Short,5,1,952,17,17,1
602,Noise,4,Short,3,0,1410,18,18,0
602,Noise,5,Short,4,1,1226,19,19,1
602,Noise,1,Short,5,0,1082,20,20,0
602,Noise,2,Long,1,0,998,21,21,0
602,Noise,1,Long,2,0,898,22,22,0
602,Noise,2,Short,1,0,809,23,23,0
602,Noise,3,Long,2,0,1193,24,24,0
602,Silence,4,Short,4,0,843,1,25,0
602,Silence,3,Long,4,0,885,2,26,0
602,Silence,4,Long,3,0,830,3,27,0
602,Silence,6,Short,4,1,763,4,28,1
602,Silence,6,Long,6,1,656,5,29,1
602,Silence,2,Short,6,0,831,6,30,0
602,Silence,1,Short,2,0,895,7,31,0
602,Silence,2,Long,1,0,823,8,32,0
602,Silence,1,Long,2,0,818,9,33,0
602,Silence,5,Short,1,1,908,10,34,1
602,Silence,5,Long,5,1,830,11,35,1
602,Silence,3,Short,5,0,781,12,36,0
602,Silence,4,Short,3,0,858,13,37,0
602,Silence,5,Long,4,1,957,14,38,1
602,Silence,1,Short,5,0,1075,15,39,0
602,Silence,6,Short,1,1,744,16,40,1
602,Silence,4,Long,6,0,851,17,41,0
602,Silence,1,Long,4,0,838,18,42,0
602,Silence,2,Short,1,0,827,19,43,0
602,Silence,6,Long,2,1,1082,20,44,1
602,Silence,3,Long,6,0,848,21,45,0
602,Silence,2,Long,3,0,776,22,46,0
602,Silence,3,Short,2,0,875,23,47,0
602,Silence,5,Short,3,1,850,24,48,1
602,Music,4,Short,4,0,772,1,49,0
602,Music,1,Short,4,0,700,2,50,0
602,Music,1,Long,1,0,706,3,51,0
602,Music,3,Short,1,0,694,4,52,0
602,Music,5,Long,3,1,677,5,53,1
602,Music,2,Short,5,0,734,6,54,0
602,Music,5,Short,2,1,760,7,55,1
602,Music,6,Long,5,1,1117,8,56,1
602,Music,4,Long,6,0,930,9,57,0
602,Music,2,Long,4,0,1004,10,58,0
602,Music,3,Long,2,0,758,11,59,0
602,Music,6,Short,3,1,683,12,60,1
602,Music,3,Short,6,0,663,13,61,0
602,Music,5,Short,3,1,1079,14,62,1
602,Music,6,Long,5,1,648,15,63,1
602,Music,3,Long,6,0,840,16,64,0
602,Music,4,Long,3,0,766,17,65,0
602,Music,1,Short,4,0,1025,18,66,0
602,Music,6,Short,1,1,609,19,67,1
602,Music,2,Long,6,0,863,20,68,0
602,Music,4,Short,2,0,801,21,69,0
602,Music,1,Long,4,0,669,22,70,0
602,Music,5,Long,1,1,715,23,71,1
602,Music,2,Short,5,0,746,24,72,0
603,Music,4,Short,4,0,1076,1,1,0
603,Music,3,Long,4,0,1172,2,2,0
603,Music,1,Long,3,1,860,3,3,1
603,Music,1,Short,1,0,1072,4,4,0
603,Music,4,Long,1,1,731,5,5,1
603,Music,5,Short,4,1,939,6,6,1
603,Music,6,Long,5,1,696,7,7,1
603,Music,5,Long,6,1,652,8,8,1
603,Music,6,Short,5,1,822,9,9,1
603,Music,2,Short,6,0,588,10,10,0
603,Music,2,Long,2,0,763,11,11,0
603,Music,3,Short,2,0,993,12,12,0
603,Music,1,Short,3,0,713,13,13,0
603,Music,2,Long,1,0,994,14,14,0
603,Music,5,Short,2,1,611,15,15,1
603,Music,4,Long,5,1,1255,16,16,1
603,Music,1,Long,4,0,734,17,17,0
603,Music,4,Short,1,1,1495,18,18,1
603,Music,6,Short,4,1,770,19,19,1
603,Music,3,Long,6,0,895,20,20,0
603,Music,6,Long,3,1,569,21,21,1
603,Music,2,Short,6,0,445,22,22,0
603,Music,5,Long,2,1,645,23,23,1
603,Music,3,Short,5,0,531,24,24,0
603,Noise,4,Short,4,1,1151,1,25,1
603,Noise,2,Short,4,0,810,2,26,0
603,Noise,2,Long,2,0,1049,3,27,0
603,Noise,6,Short,2,1,586,4,28,1
603,Noise,1,Short,6,0,670,5,29,0
603,Noise,4,Long,1,1,609,6,30,1
603,Noise,1,Long,4,0,713,7,31,0
603,Noise,5,Short,1,1,508,8,32,1
603,Noise,3,Short,5,0,873,9,33,0
603,Noise,6,Long,3,1,660,10,34,1
603,Noise,3,Long,6,0,868,11,35,0
603,Noise,5,Long,3,1,789,12,36,1
603,Noise,5,Long,5,1,893,13,37,1
603,Noise,2,Short,5,0,660,14,38,0
603,Noise,3,Long,2,0,806,15,39,0
603,Noise,4,Short,3,1,648,16,40,1
603,Noise,4,Long,4,1,1239,17,41,1
603,Noise,1,Long,4,0,874,18,42,0
603,Noise,2,Long,1,0,737,19,43,0
603,Noise,1,Short,2,0,707,20,44,0
603,Noise,6,Long,1,1,568,21,45,1
603,Noise,6,Short,6,1,889,22,46,1
603,Noise,5,Short,6,1,639,23,47,1
603,Noise,3,Short,5,0,733,24,48,0
603,Silence,4,Short,4,1,1646,1,49,1
603,Silence,1,Long,4,0,672,2,50,0
603,Silence,6,Short,1,1,530,3,51,1
603,Silence,3,Short,6,0,585,4,52,0
603,Silence,2,Long,3,0,779,5,53,0
603,Silence,5,Short,2,1,651,6,54,1
603,Silence,2,Short,5,0,574,7,55,0
603,Silence,5,Long,2,1,621,8,56,1
603,Silence,4,Long,5,1,814,9,57,1
603,Silence,1,Short,4,0,573,10,58,0
603,Silence,3,Long,1,0,1722,11,59,0
603,Silence,6,Long,3,1,590,12,60,1
603,Silence,2,Long,6,0,510,13,61,0
603,Silence,5,Short,2,1,534,14,62,1
603,Silence,4,Short,5,1,462,15,63,1
603,Silence,1,Long,4,0,560,16,64,0
603,Silence,6,Long,1,1,585,17,65,1
603,Silence,4,Long,6,1,1146,18,66,1
603,Silence,3,Long,4,0,801,19,67,0
603,Silence,3,Short,3,0,1281,20,68,0
603,Silence,5,Long,3,1,716,21,69,1
603,Silence,1,Short,5,0,743,22,70,0
603,Silence,2,Short,1,0,787,23,71,0
603,Silence,6,Short,2,1,513,24,72,1
604,Music,4,Short,4,0,645,1,1,0
604,Music,4,Long,4,0,424,2,2,0
604,Music,1,Long,4,0,648,3,3,0
604,Music,3,Short,1,1,1130,4,4,1
604,Music,5,Long,3,1,673,5,5,1
604,Music,1,Short,5,0,579,6,6,0
604,Music,3,Long,1,1,431,7,7,1
604,Music,6,Long,3,1,701,8,8,1
604,Music,5,Short,6,1,520,9,9,1
604,Music,6,Short,5,1,421,10,10,1
604,Music,2,Long,6,0,593,11,11,0
604,Music,2,Short,2,0,574,12,12,0
604,Music,4,Short,2,1,709,13,13,1
604,Music,6,Short,4,1,598,14,14,1
604,Music,2,Short,6,0,380,15,15,0
604,Music,4,Long,2,1,454,16,16,1
604,Music,3,Long,4,1,590,17,17,1
604,Music,6,Long,3,1,423,18,18,1
604,Music,1,Long,6,0,487,19,19,0
604,Music,2,Long,1,0,519,20,20,0
604,Music,5,Long,2,1,586,21,21,1
604,Music,3,Short,5,0,893,22,22,0
604,Music,5,Short,3,1,853,23,23,1
604,Music,1,Short,5,0,532,24,24,0
604,Silence,4,Short,4,1,907,1,25,1
604,Silence,3,Long,4,1,563,2,26,1
604,Silence,6,Long,3,1,577,3,27,1
604,Silence,1,Long,6,0,426,4,28,0
604,Silence,6,Short,1,1,434,5,29,1
604,Silence,5,Long,6,1,551,6,30,1
604,Silence,3,Short,5,0,827,7,31,0
604,Silence,5,Short,3,1,526,8,32,1
604,Silence,1,Short,5,0,402,9,33,0
604,Silence,2,Long,1,0,597,10,34,0
604,Silence,2,Short,2,0,633,11,35,0
604,Silence,4,Long,2,1,435,12,36,1
604,Silence,2,Long,4,0,397,13,37,0
604,Silence,5,Short,2,1,398,14,38,1
604,Silence,2,Short,5,0,388,15,39,0
604,Silence,6,Long,2,1,345,16,40,1
604,Silence,4,Short,6,1,431,17,41,1
604,Silence,1,Short,4,0,318,18,42,0
604,Silence,1,Long,1,0,552,19,43,0
604,Silence,6,Short,1,1,384,20,44,1
604,Silence,3,Long,6,0,383,21,45,0
604,Silence,5,Long,3,1,522,22,46,1
604,Silence,4,Long,5,0,591,23,47,0
604,Silence,3,Short,4,0,608,24,48,0
604,Noise,4,Short,4,1,870,1,49,1
604,Noise,2,Short,4,0,437,2,50,0
604,Noise,4,Long,2,1,491,3,51,1
604,Noise,1,Long,4,0,537,4,52,0
604,Noise,6,Long,1,1,441,5,53,1
604,Noise,3,Short,6,0,399,6,54,0
604,Noise,3,Long,3,0,779,7,55,0
604,Noise,6,Short,3,1,604,8,56,1
604,Noise,2,Long,6,0,748,9,57,0
604,Noise,5,Short,2,1,353,10,58,1
604,Noise,1,Short,5,0,569,11,59,0
604,Noise,5,Long,1,1,404,12,60,1
604,Noise,6,Short,5,1,533,13,61,1
604,Noise,4,Short,6,0,627,14,62,0
604,Noise,2,Long,4,0,552,15,63,0
604,Noise,1,Short,2,0,518,16,64,0
604,Noise,6,Long,1,1,555,17,65,1
604,Noise,3,Short,6,0,541,18,66,0
604,Noise,5,Short,3,1,461,19,67,1
604,Noise,4,Long,5,1,485,20,68,1
604,Noise,3,Long,4,0,396,21,69,0
604,Noise,2,Short,3,0,623,22,70,0
604,Noise,5,Long,2,1,511,23,71,1
604,Noise,1,Long,5,0,491,24,72,0
606,Silence,4,Short,4,0,949,1,1,0
606,Silence,3,Short,4,0,1253,2,2,0
606,Silence,6,Long,3,1,765,3,3,1
606,Silence,1,Long,6,0,735,4,4,0
606,Silence,5,Long,1,1,645,5,5,1
606,Silence,1,Short,5,0,826,6,6,0
606,Silence,5,Short,1,1,712,7,7,1
606,Silence,4,Long,5,0,1471,8,8,0
606,Silence,3,Long,4,0,776,9,9,0
606,Silence,2,Long,3,0,843,10,10,0
606,Silence,2,Short,2,0,896,11,11,0
606,Silence,6,Short,2,1,1259,12,12,1
606,Silence,5,Short,6,1,2266,13,13,1
606,Silence,6,Long,5,1,1120,14,14,1
606,Silence,6,Short,6,1,999,15,15,1
606,Silence,3,Short,6,0,939,16,16,0
606,Silence,2,Short,3,0,768,17,17,0
606,Silence,2,Long,2,0,1193,18,18,0
606,Silence,4,Short,2,0,1995,19,19,0
606,Silence,3,Long,4,0,1633,20,20,0
606,Silence,1,Long,3,0,1130,21,21,0
606,Silence,5,Long,1,1,1115,22,22,1
606,Silence,1,Short,5,0,725,23,23,0
606,Silence,4,Long,1,0,1216,24,24,0
606,Music,4,Short,4,0,1189,1,25,0
606,Music,2,Short,4,0,1509,2,26,0
606,Music,2,Long,2,0,656,3,27,0
606,Music,3,Long,2,1,2791,4,28,1
606,Music,6,Long,3,1,757,5,29,1
606,Music,1,Short,6,0,591,6,30,0
606,Music,6,Short,1,1,734,7,31,1
606,Music,4,Long,6,1,1264,8,32,1
606,Music,5,Short,4,1,568,9,33,1
606,Music,3,Short,5,1,853,10,34,1
606,Music,1,Long,3,0,796,11,35,0
606,Music,5,Long,1,1,1131,12,36,1
606,Music,3,Short,5,0,1821,13,37,0
606,Music,2,Long,3,0,736,14,38,0
606,Music,5,Short,2,1,986,15,39,1
606,Music,2,Short,5,0,761,16,40,0
606,Music,3,Long,2,0,2176,17,41,0
606,Music,4,Short,3,0,2601,18,42,0
606,Music,1,Short,4,0,775,19,43,0
606,Music,1,Long,1,0,669,20,44,0
606,Music,4,Long,1,1,883,21,45,1
606,Music,6,Short,4,1,1060,22,46,1
606,Music,6,Long,6,1,861,23,47,1
606,Music,5,Long,6,1,689,24,48,1
606,Noise,4,Short,4,0,1848,1,49,0
606,Noise,4,Long,4,1,1867,2,50,1
606,Noise,1,Long,4,0,1378,3,51,0
606,Noise,6,Short,1,1,606,4,52,1
606,Noise,3,Short,6,0,1159,5,53,0
606,Noise,5,Short,3,1,932,6,54,1
606,Noise,1,Short,5,0,1202,7,55,0
606,Noise,5,Long,1,1,1075,8,56,1
606,Noise,2,Short,5,0,1087,9,57,0
606,Noise,3,Long,2,1,1545,10,58,1
606,Noise,2,Long,3,0,1736,11,59,0
606,Noise,6,Long,2,1,1007,12,60,1
606,Noise,5,Long,6,1,1044,13,61,1
606,Noise,6,Long,5,1,1071,14,62,1
606,Noise,6,Short,6,1,1819,15,63,1
606,Noise,2,Long,6,0,765,16,64,0
606,Noise,4,Short,2,0,1612,17,65,0
606,Noise,3,Short,4,0,1715,18,66,0
606,Noise,2,Short,3,0,1256,19,67,0
606,Noise,1,Long,2,0,2120,20,68,0
606,Noise,4,Long,1,1,1227,21,69,1
606,Noise,5,Short,4,1,990,22,70,1
606,Noise,3,Long,5,0,2176,23,71,0
606,Noise,1,Short,3,0,1130,24,72,0
607,Noise,4,Short,4,1,810,1,1,1
607,Noise,1,Long,4,0,946,2,2,0
607,Noise,3,Long,1,1,1042,3,3,1
607,Noise,2,Long,3,0,1181,4,4,0
607,Noise,2,Short,2,1,2233,5,5,1
607,Noise,6,Short,2,1,1035,6,6,1
607,Noise,3,Short,6,0,788,7,7,0
607,Noise,5,Long,3,1,1011,8,8,1
607,Noise,4,Long,5,1,907,9,9,1
607,Noise,5,Short,4,1,721,10,10,1
607,Noise,1,Short,5,0,958,11,11,0
607,Noise,6,Long,1,1,1038,12,12,1
607,Noise,2,Long,6,0,904,13,13,0
607,Noise,4,Long,2,1,764,14,14,1
607,Noise,4,Short,4,0,2332,15,15,0
607,Noise,3,Short,4,0,1189,16,16,0
607,Noise,5,Short,3,1,1351,17,17,1
607,Noise,6,Short,5,1,917,18,18,1
607,Noise,1,Short,6,0,879,19,19,0
607,Noise,1,Long,1,0,1681,20,20,0
607,Noise,6,Long,1,1,669,21,21,1
607,Noise,5,Long,6,1,1049,22,22,1
607,Noise,3,Long,5,0,880,23,23,0
607,Noise,2,Short,3,0,774,24,24,0
607,Music,4,Short,4,0,1361,1,25,0
607,Music,4,Long,4,1,726,2,26,1
607,Music,5,Long,4,1,620,3,27,1
607,Music,2,Short,5,0,1091,4,28,0
607,Music,6,Short,2,1,868,5,29,1
607,Music,5,Short,6,1,726,6,30,1
607,Music,6,Long,5,1,655,7,31,1
607,Music,3,Long,6,0,1282,8,32,0
607,Music,2,Long,3,0,1238,9,33,0
607,Music,3,Short,2,0,1552,10,34,0
607,Music,1,Long,3,0,1525,11,35,0
607,Music,1,Short,1,0,826,12,36,0
607,Music,1,Long,1,0,1155,13,37,0
607,Music,5,Long,1,1,696,14,38,1
607,Music,6,Long,5,1,1633,15,39,1
607,Music,4,Long,6,0,2254,16,40,0
607,Music,1,Short,4,0,1123,17,41,0
607,Music,4,Short,1,1,828,18,42,1
607,Music,2,Long,4,0,638,19,43,0
607,Music,5,Short,2,1,1311,20,44,1
607,Music,3,Short,5,0,1284,21,45,0
607,Music,6,Short,3,1,1585,22,46,1
607,Music,3,Long,6,0,1577,23,47,0
607,Music,2,Short,3,0,1113,24,48,0
607,Silence,4,Short,4,1,3006,1,49,1
607,Silence,1,Short,4,0,690,2,50,0
607,Silence,5,Short,1,1,543,3,51,1
607,Silence,6,Short,5,1,518,4,52,1
607,Silence,1,Long,6,0,1826,5,53,0
607,Silence,4,Long,1,1,406,6,54,1
607,Silence,3,Long,4,0,1523,7,55,0
607,Silence,2,Long,3,0,773,8,56,0
607,Silence,2,Short,2,0,722,9,57,0
607,Silence,6,Long,2,1,756,10,58,1
607,Silence,5,Long,6,1,903,11,59,1
607,Silence,3,Short,5,0,708,12,60,0
607,Silence,1,Long,3,0,2252,13,61,0
607,Silence,3,Long,1,0,2267,14,62,0
607,Silence,4,Short,3,0,2721,15,63,0
607,Silence,5,Long,4,1,716,16,64,1
607,Silence,1,Short,5,0,990,17,65,0
607,Silence,6,Short,1,1,653,18,66,1
607,Silence,5,Short,6,1,2136,19,67,1
607,Silence,6,Long,5,1,777,20,68,1
607,Silence,4,Long,6,0,2268,21,69,0
607,Silence,3,Short,4,0,977,22,70,0
607,Silence,2,Short,3,0,1199,23,71,0
607,Silence,2,Long,2,0,1122,24,72,0
608,Noise,4,Short,4,0,1191,1,1,0
608,Noise,6,Long,4,1,816,2,2,1
608,Noise,1,Long,6,0,910,3,3,0
608,Noise,6,Short,1,1,1276,4,4,1
608,Noise,5,Short,6,1,1633,5,5,1
608,Noise,3,Long,5,0,744,6,6,0
608,Noise,2,Long,3,0,819,7,7,0
608,Noise,4,Long,2,0,1291,8,8,0
608,Noise,1,Short,4,0,638,9,9,0
608,Noise,2,Short,1,0,606,10,10,0
608,Noise,5,Long,2,1,632,11,11,1
608,Noise,3,Short,5,0,1199,12,12,0
608,Noise,4,Short,3,0,780,13,13,0
608,Noise,6,Long,4,1,614,14,14,1
608,Noise,1,Long,6,0,716,15,15,0
608,Noise,5,Short,1,1,1775,16,16,1
608,Noise,4,Long,5,0,2197,17,17,0
608,Noise,3,Long,4,0,807,18,18,0
608,Noise,3,Short,3,0,1847,19,19,0
608,Noise,6,Short,3,1,534,20,20,1
608,Noise,5,Long,6,1,1018,21,21,1
608,Noise,2,Long,5,0,683,22,22,0
608,Noise,2,Short,2,0,679,23,23,0
608,Noise,1,Short,2,0,796,24,24,0
608,Silence,4,Short,4,0,1772,1,25,0
608,Silence,4,Long,4,1,921,2,26,1
608,Silence,2,Long,4,0,634,3,27,0
608,Silence,3,Short,2,0,1915,4,28,0
608,Silence,2,Short,3,0,540,5,29,0
608,Silence,6,Long,2,1,467,6,30,1
608,Silence,5,Short,6,1,1564,7,31,1
608,Silence,1,Short,5,0,528,8,32,0
608,Silence,1,Long,1,0,540,9,33,0
608,Silence,5,Long,1,1,577,10,34,1
608,Silence,3,Long,5,0,1000,11,35,0
608,Silence,6,Short,3,1,484,12,36,1
608,Silence,3,Short,6,0,737,13,37,0
608,Silence,5,Long,3,1,547,14,38,1
608,Silence,6,Short,5,1,510,15,39,1
608,Silence,5,Short,6,0,1931,16,40,0
608,Silence,4,Short,5,0,662,17,41,0
608,Silence,2,Long,4,0,672,18,42,0
608,Silence,2,Short,2,0,456,19,43,0
608,Silence,4,Long,2,1,677,20,44,1
608,Silence,6,Long,4,0,520,21,45,0
608,Silence,1,Long,6,0,650,22,46,0
608,Silence,3,Long,1,0,1477,23,47,0
608,Silence,1,Short,3,0,596,24,48,0
608,Music,4,Short,4,0,1357,1,49,0
608,Music,1,Short,4,0,640,2,50,0
608,Music,3,Long,1,0,643,3,51,0
608,Music,5,Long,3,1,459,4,52,1
608,Music,2,Long,5,0,618,5,53,0
608,Music,6,Short,2,1,496,6,54,1
608,Music,3,Short,6,0,775,7,55,0
608,Music,1,Long,3,0,582,8,56,0
608,Music,2,Short,1,0,583,9,57,0
608,Music,4,Long,2,1,1710,10,58,1
608,Music,5,Short,4,1,552,11,59,1
608,Music,6,Long,5,1,586,12,60,1
608,Music,3,Long,6,0,669,13,61,0
608,Music,6,Long,3,1,479,14,62,1
608,Music,5,Short,6,1,1424,15,63,1
608,Music,1,Short,5,0,477,16,64,0
608,Music,6,Short,1,1,495,17,65,1
608,Music,2,Long,6,0,646,18,66,0
608,Music,5,Long,2,1,424,19,67,1
608,Music,2,Short,5,0,605,20,68,0
608,Music,4,Short,2,1,1405,21,69,1
608,Music,4,Long,4,1,1016,22,70,1
608,Music,3,Short,4,0,740,23,71,0
608,Music,1,Long,3,0,532,24,72,0
609,Music,4,Short,4,0,1304,1,1,0
609,Music,6,Long,4,1,775,2,2,1
609,Music,4,Long,6,0,1158,3,3,0
609,Music,5,Long,4,1,752,4,4,1
609,Music,1,Long,5,0,824,5,5,0
609,Music,5,Short,1,1,664,6,6,1
609,Music,3,Long,5,0,950,7,7,0
609,Music,6,Short,3,1,685,8,8,1
609,Music,2,Long,6,0,709,9,9,0
609,Music,1,Short,2,0,774,10,10,0
609,Music,3,Short,1,0,807,11,11,0
609,Music,2,Short,3,0,829,12,12,0
609,Music,1,Long,2,0,764,13,13,0
609,Music,3,Short,1,0,1573,14,14,0
609,Music,2,Short,3,0,754,15,15,0
609,Music,3,Long,2,0,1774,16,16,0
609,Music,6,Long,3,1,720,17,17,1
609,Music,5,Long,6,1,711,18,18,1
609,Music,4,Long,5,0,1703,19,19,0
609,Music,5,Short,4,1,698,20,20,1
609,Music,2,Long,5,0,911,21,21,0
609,Music,4,Short,2,1,734,22,22,1
609,Music,6,Short,4,1,754,23,23,1
609,Music,1,Short,6,0,767,24,24,0
609,Noise,4,Short,4,0,1500,1,25,0
609,Noise,5,Long,4,1,757,2,26,1
609,Noise,6,Long,5,1,935,3,27,1
609,Noise,6,Short,6,1,843,4,28,1
609,Noise,1,Long,6,0,911,5,29,0
609,Noise,1,Short,1,0,656,6,30,0
609,Noise,3,Long,1,0,1011,7,31,0
609,Noise,3,Short,3,0,1098,8,32,0
609,Noise,5,Short,3,1,735,9,33,1
609,Noise,2,Long,5,0,955,10,34,0
609,Noise,4,Long,2,1,972,11,35,1
609,Noise,2,Short,4,0,947,12,36,0
609,Noise,5,Short,2,1,666,13,37,1
609,Noise,4,Short,5,1,955,14,38,1
609,Noise,6,Long,4,1,1015,15,39,1
609,Noise,1,Short,6,0,760,16,40,0
609,Noise,3,Long,1,1,1711,17,41,1
609,Noise,5,Long,3,1,843,18,42,1
609,Noise,2,Short,5,0,706,19,43,0
609,Noise,1,Long,2,0,726,20,44,0
609,Noise,2,Long,1,0,788,21,45,0
609,Noise,3,Short,2,0,1481,22,46,0
609,Noise,6,Short,3,1,547,23,47,1
609,Noise,4,Long,6,1,1092,24,48,1
609,Silence,4,Short,4,1,968,1,49,1
609,Silence,5,Long,4,1,789,2,50,1
609,Silence,6,Long,5,1,769,3,51,1
609,Silence,6,Short,6,1,875,4,52,1
609,Silence,3,Long,6,0,852,5,53,0
609,Silence,1,Short,3,0,1014,6,54,0
609,Silence,5,Short,1,1,709,7,55,1
609,Silence,2,Long,5,0,717,8,56,0
609,Silence,1,Long,2,0,666,9,57,0
609,Silence,3,Short,1,0,1414,10,58,0
609,Silence,2,Short,3,0,699,11,59,0
609,Silence,4,Long,2,1,697,12,60,1
609,Silence,2,Short,4,0,1216,13,61,0
609,Silence,4,Long,2,1,791,14,62,1
609,Silence,3,Long,4,1,1052,15,63,1
609,Silence,5,Short,3,1,683,16,64,1
609,Silence,2,Long,5,0,765,17,65,0
609,Silence,6,Long,2,1,665,18,66,1
609,Silence,5,Long,6,1,655,19,67,1
609,Silence,1,Short,5,0,592,20,68,0
609,Silence,4,Short,1,1,555,21,69,1
609,Silence,1,Long,4,0,632,22,70,0
609,Silence,6,Short,1,1,636,23,71,1
609,Silence,3,Short,6,0,1438,24,72,0
610,Music,4,Short,4,0,656,1,1,0
610,Music,3,Short,4,0,579,2,2,0
610,Music,3,Long,3,0,765,3,3,0
610,Music,6,Long,3,1,418,4,4,1
610,Music,1,Short,6,0,678,5,5,0
610,Music,2,Short,1,0,613,6,6,0
610,Music,2,Long,2,0,762,7,7,0
610,Music,5,Short,2,1,574,8,8,1
610,Music,5,Long,5,1,611,9,9,1
610,Music,1,Long,5,0,692,10,10,0
610,Music,6,Short,1,1,665,11,11,1
610,Music,4,Long,6,1,870,12,12,1
610,Music,1,Long,4,0,627,13,13,0
610,Music,6,Long,1,1,594,14,14,1
610,Music,2,Short,6,0,869,15,15,0
610,Music,2,Long,2,0,667,16,16,0
610,Music,4,Short,2,1,640,17,17,1
610,Music,6,Short,4,1,604,18,18,1
610,Music,3,Short,6,0,503,19,19,0
610,Music,5,Long,3,1,562,20,20,1
610,Music,4,Long,5,0,568,21,21,0
610,Music,5,Short,4,1,710,22,22,1
610,Music,3,Long,5,0,688,23,23,0
610,Music,1,Short,3,0,765,24,24,0
610,Silence,4,Short,4,1,926,1,25,1
610,Silence,1,Long,4,0,759,2,26,0
610,Silence,6,Long,1,1,810,3,27,1
610,Silence,2,Short,6,0,977,4,28,0
610,Silence,2,Long,2,0,722,5,29,0
610,Silence,3,Short,2,1,1100,6,30,1
610,Silence,1,Short,3,0,727,7,31,0
610,Silence,3,Long,1,1,839,8,32,1
610,Silence,6,Short,3,1,817,9,33,1
610,Silence,5,Short,6,1,782,10,34,1
610,Silence,5,Long,5,1,803,11,35,1
610,Silence,4,Long,5,1,1254,12,36,1
610,Silence,3,Long,4,1,1838,13,37,1
610,Silence,2,Long,3,0,853,14,38,0
610,Silence,4,Long,2,1,1047,15,39,1
610,Silence,6,Long,4,1,956,16,40,1
610,Silence,3,Short,6,0,748,17,41,0
610,Silence,5,Short,3,1,787,18,42,1
610,Silence,5,Long,5,1,889,19,43,1
610,Silence,6,Short,5,1,1432,20,44,1
610,Silence,2,Short,6,0,708,21,45,0
610,Silence,4,Short,2,0,1247,22,46,0
610,Silence,1,Long,4,0,1171,23,47,0
610,Silence,1,Short,1,0,828,24,48,0
610,Noise,4,Short,4,0,1144,1,49,0
610,Noise,3,Long,4,0,1189,2,50,0
610,Noise,6,Long,3,1,712,3,51,1
610,Noise,5,Long,6,1,676,4,52,1
610,Noise,3,Short,5,0,1118,5,53,0
610,Noise,5,Short,3,1,543,6,54,1
610,Noise,2,Long,5,0,719,7,55,0
610,Noise,6,Short,2,1,683,8,56,1
610,Noise,2,Short,6,0,648,9,57,0
610,Noise,4,Long,2,1,980,10,58,1
610,Noise,1,Long,4,0,644,11,59,0
610,Noise,1,Short,1,0,715,12,60,0
610,Noise,4,Long,1,1,689,13,61,1
610,Noise,6,Long,4,1,937,14,62,1
610,Noise,1,Short,6,0,685,15,63,0
610,Noise,5,Short,1,1,759,16,64,1
610,Noise,1,Long,5,0,1041,17,65,0
610,Noise,3,Long,1,1,1197,18,66,1
610,Noise,4,Short,3,1,769,19,67,1
610,Noise,6,Short,4,1,778,20,68,1
610,Noise,2,Short,6,0,951,21,69,0
610,Noise,2,Long,2,0,825,22,70,0
610,Noise,5,Long,2,1,713,23,71,1
610,Noise,3,Short,5,0,905,24,72,0
611,Silence,4,Short,4,1,1242,1,1,1
611,Silence,4,Long,4,1,1412,2,2,1
611,Silence,3,Short,4,1,1734,3,3,1
611,Silence,1,Short,3,0,815,4,4,0
611,Silence,1,Long,1,0,926,5,5,0
611,Silence,3,Long,1,1,1058,6,6,1
611,Silence,5,Long,3,1,877,7,7,1
611,Silence,5,Short,5,1,1714,8,8,1
611,Silence,6,Short,5,1,1144,9,9,1
611,Silence,2,Long,6,0,844,10,10,0
611,Silence,2,Short,2,0,964,11,11,0
611,Silence,6,Long,2,1,870,12,12,1
611,Silence,6,Long,6,1,983,13,13,1
611,Silence,2,Long,6,0,767,14,14,0
611,Silence,3,Short,2,0,1447,15,15,0
611,Silence,4,Long,3,1,831,16,16,1
611,Silence,2,Short,4,0,848,17,17,0
611,Silence,6,Short,2,1,808,18,18,1
611,Silence,5,Long,6,1,1468,19,19,1
611,Silence,5,Short,5,1,1150,20,20,1
611,Silence,4,Short,5,1,2364,21,21,1
611,Silence,3,Long,4,0,1078,22,22,0
611,Silence,1,Long,3,0,792,23,23,0
611,Silence,1,Short,1,0,701,24,24,0
611,Noise,4,Short,4,1,1251,1,25,1
611,Noise,2,Long,4,0,746,2,26,0
611,Noise,3,Long,2,1,1443,3,27,1
611,Noise,6,Short,3,1,1143,4,28,1
611,Noise,4,Long,6,1,1683,5,29,1
611,Noise,5,Long,4,1,926,6,30,1
611,Noise,3,Short,5,0,880,7,31,0
611,Noise,1,Short,3,0,763,8,32,0
611,Noise,2,Short,1,0,1381,9,33,0
611,Noise,6,Long,2,1,918,10,34,1
611,Noise,1,Long,6,0,1721,11,35,0
611,Noise,5,Short,1,1,923,12,36,1
611,Noise,3,Long,5,0,1835,13,37,0
611,Noise,1,Long,3,0,642,14,38,0
611,Noise,2,Short,1,0,505,15,39,0
611,Noise,3,Short,2,1,1304,16,40,1
611,Noise,2,Long,3,0,816,17,41,0
611,Noise,6,Short,2,1,674,18,42,1
611,Noise,4,Long,6,1,745,19,43,1
611,Noise,5,Short,4,1,691,20,44,1
611,Noise,5,Long,5,1,1438,21,45,1
611,Noise,6,Long,5,1,1251,22,46,1
611,Noise,1,Short,6,0,599,23,47,0
611,Noise,4,Short,1,1,1546,24,48,1
611,Music,4,Short,4,1,855,1,49,1
611,Music,1,Short,4,0,640,2,50,0
611,Music,5,Short,1,1,681,3,51,1
611,Music,2,Long,5,0,791,4,52,0
611,Music,6,Long,2,1,547,5,53,1
611,Music,3,Long,6,0,744,6,54,0
611,Music,5,Long,3,1,983,7,55,1
611,Music,4,Long,5,1,1427,8,56,1
611,Music,6,Short,4,1,571,9,57,1
611,Music,1,Long,6,0,635,10,58,0
611,Music,3,Short,1,0,1649,11,59,0
611,Music,2,Short,3,0,1352,12,60,0
611,Music,3,Short,2,1,1134,13,61,1
611,Music,3,Long,3,1,1160,14,62,1
611,Music,2,Long,3,0,773,15,63,0
611,Music,2,Short,2,0,1172,16,64,0
611,Music,6,Short,2,1,548,17,65,1
611,Music,6,Long,6,1,827,18,66,1
611,Music,1,Short,6,0,467,19,67,0
611,Music,5,Long,1,1,765,20,68,1
611,Music,4,Long,5,1,1089,21,69,1
611,Music,5,Short,4,1,1109,22,70,1
611,Music,1,Long,5,0,658,23,71,0
611,Music,4,Short,1,1,742,24,72,1
612,Silence,4,Short,4,1,901,1,1,1
612,Silence,2,Long,4,0,886,2,2,0
612,Silence,4,Long,2,1,825,3,3,1
612,Silence,6,Short,4,1,685,4,4,1
612,Silence,1,Long,6,0,658,5,5,0
612,Silence,6,Long,1,1,642,6,6,1
612,Silence,1,Short,6,0,694,7,7,0
612,Silence,2,Short,1,0,645,8,8,0
612,Silence,5,Short,2,1,752,9,9,1
612,Silence,3,Short,5,0,780,10,10,0
612,Silence,3,Long,3,0,1087,11,11,0
612,Silence,5,Long,3,1,601,12,12,1
612,Silence,3,Short,5,0,461,13,13,0
612,Silence,5,Short,3,1,585,14,14,1
612,Silence,1,Long,5,0,639,15,15,0
612,Silence,2,Short,1,0,546,16,16,0
612,Silence,6,Short,2,1,372,17,17,1
612,Silence,4,Long,6,1,1833,18,18,1
612,Silence,6,Long,4,1,1399,19,19,1
612,Silence,2,Long,6,0,1157,20,20,0
612,Silence,4,Short,2,0,1911,21,21,0
612,Silence,3,Long,4,0,1135,22,22,0
612,Silence,5,Long,3,1,682,23,23,1
612,Silence,1,Short,5,0,710,24,24,0
612,Music,4,Short,4,0,1136,1,25,0
612,Music,6,Short,4,1,620,2,26,1
612,Music,6,Long,6,1,598,3,27,1
612,Music,5,Short,6,1,1432,4,28,1
612,Music,2,Long,5,0,1060,5,29,0
612,Music,1,Long,2,0,465,6,30,0
612,Music,2,Short,1,0,443,7,31,0
612,Music,3,Long,2,0,1052,8,32,0
612,Music,4,Long,3,1,774,9,33,1
612,Music,1,Short,4,0,761,10,34,0
612,Music,5,Long,1,1,612,11,35,1
612,Music,3,Short,5,0,1520,12,36,0
612,Music,4,Long,3,1,939,13,37,1
612,Music,4,Short,4,0,1730,14,38,0
612,Music,5,Short,4,1,1616,15,39,1
612,Music,1,Short,5,0,581,16,40,0
612,Music,1,Long,1,0,633,17,41,0
612,Music,6,Short,1,1,797,18,42,1
612,Music,2,Short,6,0,833,19,43,0
612,Music,3,Long,2,0,1540,20,44,0
612,Music,5,Long,3,1,898,21,45,1
612,Music,3,Short,5,0,1192,22,46,0
612,Music,2,Long,3,0,978,23,47,0
612,Music,6,Long,2,1,910,24,48,1
612,Noise,4,Short,4,0,848,1,49,0
612,Noise,6,Short,4,1,614,2,50,1
612,Noise,1,Long,6,0,678,3,51,0
612,Noise,5,Long,1,1,671,4,52,1
612,Noise,3,Long,5,0,602,5,53,0
612,Noise,5,Short,3,1,576,6,54,1
612,Noise,1,Short,5,0,1026,7,55,0
612,Noise,4,Long,1,1,2192,8,56,1
612,Noise,3,Short,4,0,662,9,57,0
612,Noise,6,Long,3,1,827,10,58,1
612,Noise,2,Short,6,0,689,11,59,0
612,Noise,2,Long,2,0,840,12,60,0
612,Noise,1,Long,2,0,702,13,61,0
612,Noise,6,Long,1,1,734,14,62,1
612,Noise,3,Long,6,0,937,15,63,0
612,Noise,4,Short,3,0,1038,16,64,0
612,Noise,6,Short,4,1,695,17,65,1
612,Noise,4,Long,6,0,1916,18,66,0
612,Noise,5,Long,4,1,811,19,67,1
612,Noise,1,Short,5,0,707,20,68,0
612,Noise,2,Long,1,0,724,21,69,0
612,Noise,3,Short,2,0,928,22,70,0
612,Noise,2,Short,3,0,777,23,71,0
612,Noise,5,Short,2,1,767,24,72,1
613,Noise,4,Short,4,0,941,1,1,0
613,Noise,6,Long,4,1,837,2,2,1
613,Noise,5,Short,6,1,885,3,3,1
613,Noise,2,Long,5,0,838,4,4,0
613,Noise,4,Long,2,1,1996,5,5,1
613,Noise,5,Long,4,1,1721,6,6,1
613,Noise,3,Long,5,0,857,7,7,0
613,Noise,3,Short,3,0,1094,8,8,0
613,Noise,6,Short,3,1,610,9,9,1
613,Noise,1,Long,6,0,851,10,10,0
613,Noise,1,Short,1,0,894,11,11,0
613,Noise,2,Short,1,0,750,12,12,0
613,Noise,6,Short,2,1,817,13,13,1
613,Noise,2,Short,6,0,1541,14,14,0
613,Noise,3,Long,2,1,3372,15,15,1
613,Noise,5,Long,3,1,965,16,16,1
613,Noise,1,Short,5,0,1662,17,17,0
613,Noise,6,Long,1,1,883,18,18,1
613,Noise,1,Long,6,0,883,19,19,0
613,Noise,2,Long,1,0,1008,20,20,0
613,Noise,4,Long,2,1,2583,21,21,1
613,Noise,5,Short,4,1,1069,22,22,1
613,Noise,4,Short,5,1,2639,23,23,1
613,Noise,3,Short,4,0,2513,24,24,0
613,Music,4,Short,4,0,1636,1,25,0
613,Music,4,Long,4,0,829,2,26,0
613,Music,6,Short,4,1,660,3,27,1
613,Music,3,Short,6,0,715,4,28,0
613,Music,3,Long,3,0,1565,5,29,0
613,Music,6,Long,3,1,781,6,30,1
613,Music,2,Long,6,0,1343,7,31,0
613,Music,1,Short,2,0,719,8,32,0
613,Music,5,Short,1,1,950,9,33,1
613,Music,2,Short,5,0,1093,10,34,0
613,Music,5,Long,2,1,2279,11,35,1
613,Music,1,Long,5,0,1161,12,36,0
613,Music,6,Long,1,1,646,13,37,1
613,Music,6,Short,6,1,781,14,38,1
613,Music,1,Long,6,0,683,15,39,0
613,Music,3,Long,1,1,2471,16,40,1
613,Music,5,Short,3,1,1479,17,41,1
613,Music,2,Short,5,0,937,18,42,0
613,Music,3,Short,2,0,752,19,43,0
613,Music,1,Short,3,0,743,20,44,0
613,Music,4,Long,1,1,684,21,45,1
613,Music,4,Short,4,1,2170,22,46,1
613,Music,5,Long,4,1,700,23,47,1
613,Music,2,Long,5,0,659,24,48,0
613,Silence,4,Short,4,0,1041,1,49,0
613,Silence,6,Short,4,1,558,2,50,1
613,Silence,3,Short,6,0,1322,3,51,0
613,Silence,1,Long,3,0,919,4,52,0
613,Silence,2,Long,1,0,669,5,53,0
613,Silence,1,Short,2,0,551,6,54,0
613,Silence,6,Long,1,1,602,7,55,1
613,Silence,4,Long,6,1,1426,8,56,1
613,Silence,5,Long,4,1,1109,9,57,1
613,Silence,5,Short,5,1,689,10,58,1
613,Silence,3,Long,5,0,2506,11,59,0
613,Silence,2,Short,3,0,914,12,60,0
613,Silence,3,Short,2,0,1994,13,61,0
613,Silence,6,Short,3,1,741,14,62,1
613,Silence,2,Short,6,0,958,15,63,0
613,Silence,6,Long,2,1,712,16,64,1
613,Silence,5,Short,6,1,670,17,65,1
613,Silence,4,Short,5,0,2526,18,66,0
613,Silence,4,Long,4,1,1666,19,67,1
613,Silence,1,Long,4,0,773,20,68,0
613,Silence,3,Long,1,1,1874,21,69,1
613,Silence,5,Long,3,1,705,22,70,1
613,Silence,2,Long,5,0,796,23,71,0
613,Silence,1,Short,2,0,743,24,72,0
614,Noise,4,Short,4,0,833,1,1,0
614,Noise,5,Short,4,0,809,2,2,0
614,Noise,3,Long,5,1,1903,3,3,1
614,Noise,1,Long,3,0,1017,4,4,0
614,Noise,2,Short,1,0,653,5,5,0
614,Noise,6,Long,2,1,659,6,6,1
614,Noise,4,Long,6,0,982,7,7,0
614,Noise,3,Short,4,0,636,8,8,0
614,Noise,1,Short,3,0,966,9,9,0
614,Noise,6,Short,1,1,685,10,10,1
614,Noise,5,Long,6,1,831,11,11,1
614,Noise,2,Long,5,0,628,12,12,0
614,Noise,5,Short,2,1,634,13,13,1
614,Noise,2,Long,5,0,1012,14,14,0
614,Noise,6,Short,2,1,522,15,15,1
614,Noise,1,Short,6,0,700,16,16,0
614,Noise,4,Long,1,1,1154,17,17,1
614,Noise,2,Short,4,0,644,18,18,0
614,Noise,4,Short,2,1,1176,19,19,1
614,Noise,3,Long,4,0,659,20,20,0
614,Noise,3,Short,3,0,606,21,21,0
614,Noise,1,Long,3,0,1109,22,22,0
614,Noise,5,Long,1,1,725,23,23,1
614,Noise,6,Long,5,1,813,24,24,1
614,Silence,4,Short,4,0,1164,1,25,0
614,Silence,1,Long,4,0,994,2,26,0
614,Silence,6,Long,1,1,800,3,27,1
614,Silence,4,Long,6,0,1327,4,28,0
614,Silence,2,Long,4,0,1071,5,29,0
614,Silence,6,Short,2,1,870,6,30,1
614,Silence,5,Long,6,1,1277,7,31,1
614,Silence,2,Short,5,0,796,8,32,0
614,Silence,5,Short,2,1,778,9,33,1
614,Silence,3,Short,5,0,919,10,34,0
614,Silence,1,Short,3,0,687,11,35,0
614,Silence,3,Long,1,0,920,12,36,0
614,Silence,3,Long,3,0,1032,13,37,0
614,Silence,5,Long,3,1,747,14,38,1
614,Silence,5,Short,5,1,812,15,39,1
614,Silence,2,Long,5,0,909,16,40,0
614,Silence,4,Long,2,1,1242,17,41,1
614,Silence,2,Short,4,0,683,18,42,0
614,Silence,3,Short,2,0,804,19,43,0
614,Silence,6,Long,3,1,746,20,44,1
614,Silence,1,Short,6,0,803,21,45,0
614,Silence,4,Short,1,0,1079,22,46,0
614,Silence,6,Short,4,1,735,23,47,1
614,Silence,1,Long,6,0,866,24,48,0
614,Music,4,Short,4,0,746,1,49,0
614,Music,5,Long,4,1,750,2,50,1
614,Music,3,Short,5,0,668,3,51,0
614,Music,6,Long,3,1,764,4,52,1
614,Music,5,Short,6,0,983,5,53,0
614,Music,4,Long,5,0,767,6,54,0
614,Music,1,Long,4,0,699,7,55,0
614,Music,1,Short,1,0,591,8,56,0
614,Music,2,Short,1,0,662,9,57,0
614,Music,2,Long,2,0,671,10,58,0
614,Music,6,Short,2,1,574,11,59,1
614,Music,3,Long,6,0,771,12,60,0
614,Music,4,Short,3,0,818,13,61,0
614,Music,2,Short,4,0,783,14,62,0
614,Music,3,Short,2,0,715,15,63,0
614,Music,4,Long,3,1,825,16,64,1
614,Music,1,Short,4,0,719,17,65,0
614,Music,6,Long,1,1,775,18,66,1
614,Music,2,Long,6,0,602,19,67,0
614,Music,5,Short,2,1,640,20,68,1
614,Music,6,Short,5,1,692,21,69,1
614,Music,5,Long,6,1,752,22,70,1
614,Music,1,Long,5,0,715,23,71,0
614,Music,3,Long,1,1,995,24,72,1
615,Music,4,Short,4,0,1233,1,1,0
615,Music,6,Short,4,1,753,2,2,1
615,Music,4,Long,6,0,966,3,3,0
615,Music,6,Long,4,1,670,4,4,1
615,Music,3,Long,6,0,816,5,5,0
615,Music,2,Long,3,0,1219,6,6,0
615,Music,1,Long,2,0,877,7,7,0
615,Music,5,Short,1,1,628,8,8,1
615,Music,1,Short,5,0,740,9,9,0
615,Music,5,Long,1,1,609,10,10,1
615,Music,3,Short,5,0,565,11,11,0
615,Music,2,Short,3,0,696,12,12,0
615,Music,1,Short,2,0,686,13,13,0
615,Music,5,Short,1,1,639,14,14,1
615,Music,4,Long,5,1,727,15,15,1
615,Music,3,Long,4,0,685,16,16,0
615,Music,1,Long,3,0,870,17,17,0
615,Music,3,Short,1,0,738,18,18,0
615,Music,4,Short,3,1,638,19,19,1
615,Music,5,Long,4,1,731,20,20,1
615,Music,6,Short,5,1,710,21,21,1
615,Music,6,Long,6,1,675,22,22,1
615,Music,2,Long,6,0,720,23,23,0
615,Music,2,Short,2,0,645,24,24,0
615,Noise,4,Short,4,1,1421,1,25,1
615,Noise,5,Long,4,1,743,2,26,1
615,Noise,2,Long,5,0,805,3,27,0
615,Noise,6,Long,2,1,698,4,28,1
615,Noise,4,Long,6,0,1796,5,29,0
615,Noise,6,Short,4,1,719,6,30,1
615,Noise,1,Long,6,0,847,7,31,0
615,Noise,1,Short,1,0,754,8,32,0
615,Noise,2,Short,1,0,709,9,33,0
615,Noise,3,Long,2,0,794,10,34,0
615,Noise,3,Short,3,0,733,11,35,0
615,Noise,5,Short,3,1,719,12,36,1
615,Noise,2,Long,5,0,653,13,37,0
615,Noise,6,Long,2,1,640,14,38,1
615,Noise,2,Short,6,0,620,15,39,0
615,Noise,1,Short,2,0,734,16,40,0
615,Noise,4,Long,1,1,815,17,41,1
615,Noise,3,Long,4,0,2289,18,42,0
615,Noise,3,Short,3,0,921,19,43,0
615,Noise,6,Short,3,1,644,20,44,1
615,Noise,5,Long,6,1,873,21,45,1
615,Noise,1,Long,5,0,854,22,46,0
615,Noise,4,Short,1,1,761,23,47,1
615,Noise,5,Short,4,1,671,24,48,1
615,Silence,4,Short,4,1,1096,1,49,1
615,Silence,1,Long,4,0,701,2,50,0
615,Silence,2,Long,1,0,841,3,51,0
615,Silence,2,Short,2,0,763,4,52,0
615,Silence,5,Short,2,1,724,5,53,1
615,Silence,4,Long,5,1,734,6,54,1
615,Silence,6,Long,4,1,682,7,55,1
615,Silence,3,Short,6,0,692,8,56,0
615,Silence,1,Short,3,0,681,9,57,0
615,Silence,5,Long,1,1,799,10,58,1
615,Silence,6,Short,5,1,727,11,59,1
615,Silence,3,Long,6,1,1365,12,60,1
615,Silence,1,Long,3,0,817,13,61,0
615,Silence,5,Short,1,1,612,14,62,1
615,Silence,3,Long,5,0,1014,15,63,0
615,Silence,6,Short,3,1,594,16,64,1
615,Silence,4,Short,6,1,712,17,65,1
615,Silence,3,Short,4,0,680,18,66,0
615,Silence,2,Long,3,0,734,19,67,0
615,Silence,1,Short,2,0,700,20,68,0
615,Silence,5,Long,1,1,654,21,69,1
615,Silence,2,Short,5,0,559,22,70,0
615,Silence,6,Long,2,1,595,23,71,1
615,Silence,4,Long,6,1,697,24,72,1
616,Music,4,Short,4,0,946,1,1,0
616,Music,4,Long,4,0,634,2,2,0
616,Music,6,Long,4,1,663,3,3,1
616,Music,5,Long,6,0,678,4,4,0
616,Music,2,Long,5,0,744,5,5,0
616,Music,2,Short,2,0,614,6,6,0
616,Music,1,Short,2,0,556,7,7,0
616,Music,3,Long,1,0,858,8,8,0
616,Music,1,Long,3,0,642,9,9,0
616,Music,6,Short,1,1,536,10,10,1
616,Music,5,Short,6,1,616,11,11,1
616,Music,3,Short,5,0,606,12,12,0
616,Music,4,Short,3,0,615,13,13,0
616,Music,3,Long,4,0,614,14,14,0
616,Music,3,Short,3,0,532,15,15,0
616,Music,2,Long,3,0,682,16,16,0
616,Music,5,Long,2,1,523,17,17,1
616,Music,6,Long,5,1,622,18,18,1
616,Music,5,Short,6,1,1179,19,19,1
616,Music,2,Short,5,0,564,20,20,0
616,Music,4,Long,2,0,861,21,21,0
616,Music,6,Short,4,1,594,22,22,1
616,Music,1,Long,6,0,601,23,23,0
616,Music,1,Short,1,0,462,24,24,0
616,Silence,4,Short,4,0,774,1,25,0
616,Silence,5,Short,4,1,1725,2,26,1
616,Silence,1,Short,5,0,685,3,27,0
616,Silence,6,Short,1,1,680,4,28,1
616,Silence,2,Long,6,0,631,5,29,0
616,Silence,4,Long,2,1,829,6,30,1
616,Silence,5,Long,4,1,609,7,31,1
616,Silence,1,Long,5,0,681,8,32,0
616,Silence,3,Short,1,0,850,9,33,0
616,Silence,3,Long,3,0,979,10,34,0
616,Silence,6,Long,3,1,598,11,35,1
616,Silence,2,Short,6,0,605,12,36,0
616,Silence,2,Short,2,0,1047,13,37,0
616,Silence,3,Long,2,1,909,14,38,1
616,Silence,6,Long,3,1,652,15,39,1
616,Silence,2,Long,6,0,495,16,40,0
616,Silence,4,Short,2,1,1111,17,41,1
616,Silence,1,Long,4,0,702,18,42,0
616,Silence,4,Long,1,1,940,19,43,1
616,Silence,1,Short,4,0,598,20,44,0
616,Silence,6,Short,1,1,695,21,45,1
616,Silence,5,Short,6,1,756,22,46,1
616,Silence,5,Long,5,1,932,23,47,1
616,Silence,3,Short,5,0,572,24,48,0
616,Noise,4,Short,4,0,699,1,49,0
616,Noise,6,Short,4,1,571,2,50,1
616,Noise,6,Long,6,1,591,3,51,1
616,Noise,3,Long,6,0,637,4,52,0
616,Noise,2,Short,3,0,637,5,53,0
616,Noise,4,Long,2,0,833,6,54,0
616,Noise,2,Long,4,0,652,7,55,0
616,Noise,1,Long,2,0,880,8,56,0
616,Noise,5,Short,1,1,552,9,57,1
616,Noise,1,Short,5,0,616,10,58,0
616,Noise,3,Short,1,0,828,11,59,0
616,Noise,5,Long,3,1,574,12,60,1
616,Noise,3,Short,5,0,845,13,61,0
616,Noise,2,Short,3,0,574,14,62,0
616,Noise,5,Short,2,1,573,15,63,1
616,Noise,1,Short,5,0,769,16,64,0
616,Noise,1,Long,1,0,662,17,65,0
616,Noise,6,Short,1,1,647,18,66,1
616,Noise,4,Long,6,0,1779,19,67,0
616,Noise,2,Long,4,0,600,20,68,0
616,Noise,5,Long,2,1,513,21,69,1
616,Noise,3,Long,5,0,753,22,70,0
616,Noise,6,Long,3,1,480,23,71,1
616,Noise,4,Short,6,0,807,24,72,0
617,Silence,4,Short,4,1,1145,1,1,1
617,Silence,4,Long,4,1,752,2,2,1
617,Silence,6,Short,4,1,726,3,3,1
617,Silence,2,Short,6,0,702,4,4,0
617,Silence,1,Short,2,0,919,5,5,0
617,Silence,3,Short,1,1,1105,6,6,1
617,Silence,5,Short,3,1,753,7,7,1
617,Silence,5,Long,5,1,973,8,8,1
617,Silence,1,Long,5,0,931,9,9,0
617,Silence,3,Long,1,1,2276,10,10,1
617,Silence,6,Long,3,1,814,11,11,1
617,Silence,2,Long,6,0,784,12,12,0
617,Silence,1,Short,2,0,669,13,13,0
617,Silence,5,Long,1,1,803,14,14,1
617,Silence,2,Long,5,0,893,15,15,0
617,Silence,2,Short,2,0,737,16,16,0
617,Silence,5,Short,2,1,648,17,17,1
617,Silence,3,Long,5,0,861,18,18,0
617,Silence,1,Long,3,0,708,19,19,0
617,Silence,6,Long,1,1,684,20,20,1
617,Silence,4,Long,6,1,1110,21,21,1
617,Silence,3,Short,4,0,697,22,22,0
617,Silence,4,Short,3,1,1098,23,23,1
617,Silence,6,Short,4,1,829,24,24,1
617,Noise,4,Short,4,0,1461,1,25,0
617,Noise,3,Short,4,0,693,2,26,0
617,Noise,6,Long,3,1,543,3,27,1
617,Noise,2,Short,6,0,677,4,28,0
617,Noise,1,Long,2,0,643,5,29,0
617,Noise,2,Long,1,0,722,6,30,0
617,Noise,6,Short,2,1,605,7,31,1
617,Noise,5,Long,6,1,593,8,32,1
617,Noise,4,Long,5,0,925,9,33,0
617,Noise,5,Short,4,1,790,10,34,1
617,Noise,1,Short,5,0,670,11,35,0
617,Noise,3,Long,1,0,1312,12,36,0
617,Noise,4,Short,3,0,1478,13,37,0
617,Noise,4,Long,4,0,639,14,38,0
617,Noise,5,Short,4,1,705,15,39,1
617,Noise,1,Short,5,0,720,16,40,0
617,Noise,2,Short,1,0,715,17,41,0
617,Noise,3,Short,2,0,678,18,42,0
617,Noise,1,Long,3,0,700,19,43,0
617,Noise,6,Long,1,1,834,20,44,1
617,Noise,2,Long,6,0,682,21,45,0
617,Noise,6,Short,2,1,835,22,46,1
617,Noise,5,Long,6,1,852,23,47,1
617,Noise,3,Long,5,0,765,24,48,0
617,Music,4,Short,4,0,1083,1,49,0
617,Music,3,Short,4,0,585,2,50,0
617,Music,3,Long,3,0,609,3,51,0
617,Music,6,Long,3,1,592,4,52,1
617,Music,1,Short,6,0,548,5,53,0
617,Music,2,Short,1,0,539,6,54,0
617,Music,1,Long,2,0,723,7,55,0
617,Music,5,Short,1,1,652,8,56,1
617,Music,5,Long,5,1,625,9,57,1
617,Music,4,Long,5,1,858,10,58,1
617,Music,2,Long,4,0,529,11,59,0
617,Music,6,Short,2,1,694,12,60,1
617,Music,5,Short,6,1,607,13,61,1
617,Music,1,Long,5,0,589,14,62,0
617,Music,4,Short,1,0,1264,15,63,0
617,Music,6,Short,4,1,668,16,64,1
617,Music,5,Long,6,1,607,17,65,1
617,Music,2,Long,5,0,528,18,66,0
617,Music,6,Long,2,1,455,19,67,1
617,Music,3,Short,6,0,613,20,68,0
617,Music,2,Short,3,0,551,21,69,0
617,Music,4,Long,2,0,709,22,70,0
617,Music,1,Short,4,0,559,23,71,0
617,Music,3,Long,1,0,668,24,72,0
618,Silence,4,Short,4,1,1272,1,1,1
618,Silence,2,Long,4,0,1340,2,2,0
618,Silence,1,Short,2,0,1297,3,3,0
618,Silence,2,Short,1,0,1343,4,4,0
618,Silence,3,Long,2,1,1524,5,5,1
618,Silence,1,Long,3,0,1464,6,6,0
618,Silence,5,Long,1,1,1456,7,7,1
618,Silence,6,Long,5,1,1478,8,8,1
618,Silence,5,Short,6,1,1392,9,9,1
618,Silence,6,Short,5,1,1335,10,10,1
618,Silence,4,Long,6,1,2039,11,11,1
618,Silence,3,Short,4,0,1401,12,12,0
618,Silence,6,Long,3,1,1397,13,13,1
618,Silence,6,Short,6,1,1260,14,14,1
618,Silence,4,Short,6,0,1370,15,15,0
618,Silence,2,Short,4,0,1363,16,16,0
618,Silence,1,Long,2,0,1402,17,17,0
618,Silence,1,Short,1,0,1439,18,18,0
618,Silence,4,Long,1,1,2359,19,19,1
618,Silence,3,Long,4,0,1419,20,20,0
618,Silence,5,Long,3,1,1353,21,21,1
618,Silence,3,Short,5,0,1135,22,22,0
618,Silence,2,Long,3,0,1457,23,23,0
618,Silence,5,Short,2,1,1245,24,24,1
618,Music,4,Short,4,0,936,1,25,0
618,Music,4,Long,4,0,917,2,26,0
618,Music,6,Short,4,1,643,3,27,1
618,Music,1,Long,6,0,755,4,28,0
618,Music,2,Short,1,0,771,5,29,0
618,Music,2,Long,2,0,750,6,30,0
618,Music,3,Short,2,0,814,7,31,0
618,Music,1,Short,3,0,779,8,32,0
618,Music,3,Long,1,0,811,9,33,0
618,Music,5,Short,3,1,605,10,34,1
618,Music,5,Long,5,1,811,11,35,1
618,Music,6,Long,5,1,717,12,36,1
618,Music,2,Short,6,0,912,13,37,0
618,Music,6,Long,2,1,589,14,38,1
618,Music,1,Short,6,0,740,15,39,0
618,Music,5,Short,1,1,527,16,40,1
618,Music,4,Short,5,1,576,17,41,1
618,Music,3,Long,4,0,932,18,42,0
618,Music,4,Long,3,1,728,19,43,1
618,Music,2,Long,4,0,881,20,44,0
618,Music,6,Short,2,1,504,21,45,1
618,Music,3,Short,6,0,682,22,46,0
618,Music,1,Long,3,0,857,23,47,0
618,Music,5,Long,1,1,587,24,48,1
618,Noise,4,Short,4,1,618,1,49,1
618,Noise,3,Long,4,0,951,2,50,0
618,Noise,6,Long,3,1,556,3,51,1
618,Noise,4,Long,6,1,743,4,52,1
618,Noise,1,Long,4,0,804,5,53,0
618,Noise,2,Short,1,0,834,6,54,0
618,Noise,5,Long,2,1,598,7,55,1
618,Noise,3,Short,5,0,827,8,56,0
618,Noise,5,Short,3,1,557,9,57,1
618,Noise,1,Short,5,0,849,10,58,0
618,Noise,6,Short,1,1,478,11,59,1
618,Noise,2,Long,6,0,667,12,60,0
618,Noise,1,Short,2,0,844,13,61,0
618,Noise,4,Long,1,1,618,14,62,1
618,Noise,6,Short,4,1,598,15,63,1
618,Noise,2,Long,6,0,793,16,64,0
618,Noise,4,Short,2,1,742,17,65,1
618,Noise,3,Short,4,0,768,18,66,0
618,Noise,5,Long,3,1,651,19,67,1
618,Noise,2,Short,5,0,752,20,68,0
618,Noise,5,Short,2,1,538,21,69,1
618,Noise,1,Long,5,0,810,22,70,0
618,Noise,6,Long,1,1,590,23,71,1
618,Noise,3,Long,6,0,832,24,72,0
619,Noise,4,Short,4,1,981,1,1,1
619,Noise,1,Long,4,0,829,2,2,0
619,Noise,2,Short,1,0,788,3,3,0
619,Noise,4,Long,2,1,785,4,4,1
619,Noise,6,Short,4,1,703,5,5,1
619,Noise,3,Short,6,0,614,6,6,0
619,Noise,1,Short,3,0,965,7,7,0
619,Noise,5,Long,1,1,541,8,8,1
619,Noise,6,Long,5,1,520,9,9,1
619,Noise,3,Long,6,0,543,10,10,0
619,Noise,2,Long,3,0,657,11,11,0
619,Noise,5,Short,2,1,541,12,12,1
619,Noise,3,Long,5,0,595,13,13,0
619,Noise,1,Short,3,0,599,14,14,0
619,Noise,4,Short,1,1,548,15,15,1
619,Noise,3,Short,4,0,609,16,16,0
619,Noise,6,Short,3,1,496,17,17,1
619,Noise,2,Short,6,0,542,18,18,0
619,Noise,5,Short,2,0,671,19,19,0
619,Noise,4,Long,5,1,580,20,20,1
619,Noise,6,Long,4,1,778,21,21,1
619,Noise,2,Long,6,0,635,22,22,0
619,Noise,1,Long,2,0,682,23,23,0
619,Noise,5,Long,1,1,629,24,24,1
619,Music,4,Short,4,0,734,1,25,0
619,Music,4,Long,4,0,521,2,26,0
619,Music,3,Short,4,0,458,3,27,0
619,Music,3,Long,3,0,454,4,28,0
619,Music,5,Long,3,1,477,5,29,1
619,Music,2,Long,5,0,396,6,30,0
619,Music,6,Long,2,1,436,7,31,1
619,Music,6,Short,6,1,440,8,32,1
619,Music,1,Long,6,0,441,9,33,0
619,Music,5,Short,1,1,405,10,34,1
619,Music,2,Short,5,0,504,11,35,0
619,Music,1,Short,2,0,448,12,36,0
619,Music,5,Short,1,1,376,13,37,1
619,Music,6,Long,5,1,541,14,38,1
619,Music,2,Long,6,0,430,15,39,0
619,Music,3,Long,2,0,407,16,40,0
619,Music,1,Long,3,0,418,17,41,0
619,Music,2,Short,1,0,394,18,42,0
619,Music,6,Short,2,1,398,19,43,1
619,Music,4,Long,6,0,829,20,44,0
619,Music,5,Long,4,1,484,21,45,1
619,Music,4,Short,5,0,546,22,46,0
619,Music,3,Short,4,0,527,23,47,0
619,Music,1,Short,3,0,583,24,48,0
619,Silence,4,Short,4,0,971,1,49,0
619,Silence,6,Long,4,1,531,2,50,1
619,Silence,5,Short,6,1,576,3,51,1
619,Silence,3,Long,5,0,608,4,52,0
619,Silence,2,Long,3,0,592,5,53,0
619,Silence,6,Short,2,1,537,6,54,1
619,Silence,5,Long,6,1,623,7,55,1
619,Silence,4,Long,5,1,812,8,56,1
619,Silence,1,Long,4,0,585,9,57,0
619,Silence,2,Short,1,0,627,10,58,0
619,Silence,1,Short,2,0,465,11,59,0
619,Silence,3,Short,1,0,607,12,60,0
619,Silence,6,Short,3,1,696,13,61,1
619,Silence,2,Long,6,0,525,14,62,0
619,Silence,6,Long,2,1,495,15,63,1
619,Silence,5,Short,6,1,631,16,64,1
619,Silence,4,Long,5,0,650,17,65,0
619,Silence,3,Short,4,0,606,18,66,0
619,Silence,5,Long,3,0,549,19,67,0
619,Silence,1,Long,5,0,687,20,68,0
619,Silence,2,Short,1,0,587,21,69,0
619,Silence,4,Short,2,0,735,22,70,0
619,Silence,3,Long,4,0,627,23,71,0
619,Silence,1,Short,3,0,604,24,72,0
620,Noise,4,Short,4,1,886,1,1,1
620,Noise,3,Long,4,1,644,2,2,1
620,Noise,6,Long,3,1,745,3,3,1
620,Noise,5,Long,6,1,722,4,4,1
620,Noise,1,Short,5,0,613,5,5,0
620,Noise,1,Long,1,0,551,6,6,0
620,Noise,2,Short,1,0,592,7,7,0
620,Noise,6,Short,2,1,481,8,8,1
620,Noise,2,Long,6,0,631,9,9,0
620,Noise,5,Short,2,1,536,10,10,1
620,Noise,3,Short,5,0,915,11,11,0
620,Noise,4,Long,3,1,636,12,12,1
620,Noise,3,Short,4,0,600,13,13,0
620,Noise,5,Short,3,1,491,14,14,1
620,Noise,1,Long,5,0,628,15,15,0
620,Noise,4,Short,1,1,1048,16,16,1
620,Noise,1,Short,4,0,642,17,17,0
620,Noise,2,Long,1,0,865,18,18,0
620,Noise,2,Short,2,0,600,19,19,0
620,Noise,4,Long,2,1,702,20,20,1
620,Noise,6,Short,4,1,730,21,21,1
620,Noise,6,Long,6,1,556,22,22,1
620,Noise,3,Long,6,0,539,23,23,0
620,Noise,5,Long,3,1,530,24,24,1
620,Silence,4,Short,4,1,827,1,25,1
620,Silence,2,Short,4,0,530,2,26,0
620,Silence,6,Long,2,1,526,3,27,1
620,Silence,1,Long,6,0,504,4,28,0
620,Silence,1,Short,1,0,537,5,29,0
620,Silence,6,Short,1,1,533,6,30,1
620,Silence,5,Short,6,1,546,7,31,1
620,Silence,4,Long,5,1,774,8,32,1
620,Silence,3,Long,4,0,959,9,33,0
620,Silence,2,Long,3,0,1002,10,34,0
620,Silence,3,Short,2,0,863,11,35,0
620,Silence,5,Long,3,1,779,12,36,1
620,Silence,5,Long,5,1,637,13,37,1
620,Silence,3,Short,5,0,764,14,38,0
620,Silence,1,Long,3,0,758,15,39,0
620,Silence,4,Long,1,1,734,16,40,1
620,Silence,5,Short,4,1,723,17,41,1
620,Silence,2,Long,5,0,505,18,42,0
620,Silence,6,Short,2,1,565,19,43,1
620,Silence,3,Long,6,0,614,20,44,0
620,Silence,6,Long,3,1,603,21,45,1
620,Silence,4,Short,6,0,896,22,46,0
620,Silence,2,Short,4,0,591,23,47,0
620,Silence,1,Short,2,0,680,24,48,0
620,Music,4,Short,4,0,725,1,49,0
620,Music,1,Short,4,0,704,2,50,0
620,Music,5,Long,1,1,582,3,51,1
620,Music,3,Long,5,0,407,4,52,0
620,Music,5,Short,3,1,526,5,53,1
620,Music,2,Short,5,0,435,6,54,0
620,Music,6,Short,2,1,509,7,55,1
620,Music,2,Long,6,0,374,8,56,0
620,Music,6,Long,2,1,451,9,57,1
620,Music,1,Long,6,0,524,10,58,0
620,Music,4,Long,1,0,1078,11,59,0
620,Music,3,Short,4,1,1157,12,60,1
620,Music,3,Short,3,0,622,13,61,0
620,Music,5,Long,3,1,799,14,62,1
620,Music,4,Long,5,1,796,15,63,1
620,Music,1,Long,4,0,514,16,64,0
620,Music,1,Short,1,0,939,17,65,0
620,Music,3,Long,1,1,999,18,66,1
620,Music,6,Long,3,1,712,19,67,1
620,Music,2,Long,6,0,557,20,68,0
620,Music,2,Short,2,0,549,21,69,0
620,Music,4,Short,2,1,1073,22,70,1
620,Music,6,Short,4,1,611,23,71,1
620,Music,5,Short,6,1,612,24,72,1
621,Music,4,Short,4,0,1026,1,1,0
621,Music,3,Short,4,0,657,2,2,0
621,Music,6,Short,3,1,642,3,3,1
621,Music,6,Long,6,1,441,4,4,1
621,Music,2,Short,6,0,477,5,5,0
621,Music,1,Short,2,0,446,6,6,0
621,Music,1,Long,1,0,689,7,7,0
621,Music,3,Long,1,0,843,8,8,0
621,Music,2,Long,3,0,712,9,9,0
621,Music,4,Long,2,1,649,10,10,1
621,Music,5,Short,4,1,782,11,11,1
621,Music,5,Long,5,1,784,12,12,1
621,Music,5,Short,5,1,551,13,13,1
621,Music,6,Long,5,1,551,14,14,1
621,Music,3,Short,6,0,585,15,15,0
621,Music,2,Long,3,0,556,16,16,0
621,Music,3,Long,2,0,984,17,17,0
621,Music,6,Short,3,1,580,18,18,1
621,Music,1,Long,6,0,603,19,19,0
621,Music,4,Long,1,1,926,20,20,1
621,Music,2,Short,4,0,764,21,21,0
621,Music,4,Short,2,0,1226,22,22,0
621,Music,5,Long,4,1,594,23,23,1
621,Music,1,Short,5,0,749,24,24,0
621,Noise,4,Short,4,1,877,1,25,1
621,Noise,2,Short,4,0,710,2,26,0
621,Noise,2,Long,2,0,596,3,27,0
621,Noise,4,Long,2,1,744,4,28,1
621,Noise,3,Long,4,1,1050,5,29,1
621,Noise,1,Short,3,0,618,6,30,0
621,Noise,6,Long,1,1,726,7,31,1
621,Noise,1,Long,6,0,650,8,32,0
621,Noise,5,Long,1,1,660,9,33,1
621,Noise,6,Short,5,1,782,10,34,1
621,Noise,3,Short,6,0,1595,11,35,0
621,Noise,5,Short,3,1,871,12,36,1
621,Noise,5,Short,5,1,693,13,37,1
621,Noise,4,Long,5,1,753,14,38,1
621,Noise,6,Short,4,1,828,15,39,1
621,Noise,1,Long,6,0,988,16,40,0
621,Noise,1,Short,1,0,634,17,41,0
621,Noise,3,Long,1,1,878,18,42,1
621,Noise,2,Long,3,0,1006,19,43,0
621,Noise,2,Short,2,0,964,20,44,0
621,Noise,6,Long,2,1,691,21,45,1
621,Noise,4,Short,6,0,1682,22,46,0
621,Noise,3,Short,4,1,2093,23,47,1
621,Noise,5,Long,3,1,719,24,48,1
621,Silence,4,Short,4,0,2016,1,49,0
621,Silence,1,Long,4,0,749,2,50,0
621,Silence,5,Long,1,1,611,3,51,1
621,Silence,2,Long,5,0,547,4,52,0
621,Silence,1,Short,2,0,500,5,53,0
621,Silence,3,Short,1,1,971,6,54,1
621,Silence,3,Long,3,1,638,7,55,1
621,Silence,2,Short,3,0,691,8,56,0
621,Silence,5,Short,2,1,719,9,57,1
621,Silence,6,Short,5,1,572,10,58,1
621,Silence,4,Long,6,1,990,11,59,1
621,Silence,6,Long,4,1,633,12,60,1
621,Silence,6,Long,6,1,739,13,61,1
621,Silence,1,Short,6,0,732,14,62,0
621,Silence,2,Long,1,0,674,15,63,0
621,Silence,2,Short,2,0,653,16,64,0
621,Silence,5,Short,2,1,824,17,65,1
621,Silence,6,Short,5,1,812,18,66,1
621,Silence,4,Short,6,0,1286,19,67,0
621,Silence,1,Long,4,0,589,20,68,0
621,Silence,5,Long,1,1,585,21,69,1
621,Silence,3,Short,5,1,1353,22,70,1
621,Silence,3,Long,3,1,975,23,71,1
621,Silence,4,Long,3,1,925,24,72,1
622,Music,4,Short,4,0,1772,1,1,0
622,Music,1,Short,4,0,387,2,2,0
622,Music,6,Long,1,1,386,3,3,1
622,Music,1,Long,6,0,327,4,4,0
622,Music,3,Long,1,0,611,5,5,0
622,Music,5,Short,3,1,606,6,6,1
622,Music,3,Short,5,1,699,7,7,1
622,Music,6,Short,3,1,493,8,8,1
622,Music,2,Long,6,0,451,9,9,0
622,Music,2,Short,2,0,481,10,10,0
622,Music,4,Long,2,1,786,11,11,1
622,Music,5,Long,4,1,389,12,12,1
622,Music,2,Short,5,0,960,13,13,0
622,Music,4,Short,2,1,544,14,14,1
622,Music,6,Long,4,1,590,15,15,1
622,Music,1,Short,6,0,503,16,16,0
622,Music,6,Short,1,1,648,17,17,1
622,Music,3,Short,6,1,1444,18,18,1
622,Music,5,Short,3,1,761,19,19,1
622,Music,1,Long,5,0,673,20,20,0
622,Music,2,Long,1,0,615,21,21,0
622,Music,3,Long,2,1,1029,22,22,1
622,Music,5,Long,3,1,570,23,23,1
622,Music,4,Long,5,1,477,24,24,1
622,Silence,4,Short,4,1,1206,1,25,1
622,Silence,2,Long,4,0,589,2,26,0
622,Silence,5,Short,2,1,536,3,27,1
622,Silence,5,Long,5,1,413,4,28,1
622,Silence,2,Short,5,0,390,5,29,0
622,Silence,1,Long,2,0,451,6,30,0
622,Silence,3,Short,1,1,505,7,31,1
622,Silence,4,Long,3,1,495,8,32,1
622,Silence,3,Long,4,1,523,9,33,1
622,Silence,1,Short,3,0,407,10,34,0
622,Silence,6,Short,1,1,528,11,35,1
622,Silence,6,Long,6,1,401,12,36,1
622,Silence,3,Long,6,1,855,13,37,1
622,Silence,4,Long,3,1,396,14,38,1
622,Silence,2,Long,4,0,440,15,39,0
622,Silence,1,Short,2,0,536,16,40,0
622,Silence,6,Short,1,1,468,17,41,1
622,Silence,5,Long,6,1,420,18,42,1
622,Silence,1,Long,5,0,430,19,43,0
622,Silence,5,Short,1,1,405,20,44,1
622,Silence,2,Short,5,0,527,21,45,0
622,Silence,4,Short,2,1,369,22,46,1
622,Silence,6,Long,4,1,393,23,47,1
622,Silence,3,Short,6,0,608,24,48,0
622,Noise,4,Short,4,1,701,1,49,1
622,Noise,2,Long,4,0,433,2,50,0
622,Noise,6,Short,2,1,431,3,51,1
622,Noise,1,Long,6,0,410,4,52,0
622,Noise,3,Short,1,0,355,5,53,0
622,Noise,5,Short,3,1,492,6,54,1
622,Noise,6,Long,5,1,402,7,55,1
622,Noise,4,Long,6,1,883,8,56,1
622,Noise,2,Short,4,0,616,9,57,0
622,Noise,1,Short,2,0,526,10,58,0
622,Noise,5,Long,1,1,560,11,59,1
622,Noise,3,Long,5,1,803,12,60,1
622,Noise,1,Long,3,0,434,13,61,0
622,Noise,5,Long,1,1,540,14,62,1
622,Noise,6,Long,5,1,562,15,63,1
622,Noise,2,Short,6,0,471,16,64,0
622,Noise,5,Short,2,1,442,17,65,1
622,Noise,3,Short,5,1,921,18,66,1
622,Noise,4,Long,3,1,517,19,67,1
622,Noise,2,Long,4,0,500,20,68,0
622,Noise,3,Long,2,1,670,21,69,1
622,Noise,4,Short,3,1,520,22,70,1
622,Noise,1,Short,4,0,423,23,71,0
622,Noise,6,Short,1,1,474,24,72,1
623,Silence,4,Short,4,1,1226,1,1,1
623,Silence,4,Long,4,1,987,2,2,1
623,Silence,5,Long,4,1,795,3,3,1
623,Silence,5,Short,5,1,720,4,4,1
623,Silence,1,Long,5,0,960,5,5,0
623,Silence,6,Long,1,1,700,6,6,1
623,Silence,1,Short,6,0,730,7,7,0
623,Silence,6,Short,1,1,629,8,8,1
623,Silence,3,Long,6,0,1587,9,9,0
623,Silence,3,Short,3,0,964,10,10,0
623,Silence,2,Short,3,0,726,11,11,0
623,Silence,2,Long,2,0,761,12,12,0
623,Silence,1,Short,2,0,670,13,13,0
623,Silence,2,Short,1,0,657,14,14,0
623,Silence,1,Long,2,0,711,15,15,0
623,Silence,2,Long,1,0,709,16,16,0
623,Silence,4,Long,2,1,674,17,17,1
623,Silence,3,Short,4,0,935,18,18,0
623,Silence,4,Short,3,1,646,19,19,1
623,Silence,6,Long,4,1,915,20,20,1
623,Silence,5,Long,6,1,945,21,21,1
623,Silence,3,Long,5,0,1305,22,22,0
623,Silence,6,Short,3,1,634,23,23,1
623,Silence,5,Short,6,1,2485,24,24,1
623,Noise,4,Short,4,0,1838,1,25,0
623,Noise,3,Long,4,0,1152,2,26,0
623,Noise,4,Long,3,1,1848,3,27,1
623,Noise,6,Long,4,1,749,4,28,1
623,Noise,5,Long,6,1,902,5,29,1
623,Noise,3,Short,5,0,929,6,30,0
623,Noise,6,Short,3,1,796,7,31,1
623,Noise,1,Short,6,0,702,8,32,0
623,Noise,1,Long,1,0,784,9,33,0
623,Noise,2,Short,1,0,721,10,34,0
623,Noise,2,Long,2,0,724,11,35,0
623,Noise,5,Short,2,1,658,12,36,1
623,Noise,5,Short,5,1,1397,13,37,1
623,Noise,3,Long,5,0,964,14,38,0
623,Noise,2,Long,3,0,949,15,39,0
623,Noise,4,Long,2,1,896,16,40,1
623,Noise,6,Long,4,1,800,17,41,1
623,Noise,6,Short,6,1,771,18,42,1
623,Noise,5,Long,6,1,734,19,43,1
623,Noise,1,Long,5,0,959,20,44,0
623,Noise,2,Short,1,0,733,21,45,0
623,Noise,3,Short,2,0,968,22,46,0
623,Noise,1,Short,3,0,802,23,47,0
623,Noise,4,Short,1,1,984,24,48,1
623,Music,4,Short,4,0,791,1,49,0
623,Music,5,Short,4,1,643,2,50,1
623,Music,5,Long,5,1,803,3,51,1
623,Music,3,Short,5,0,599,4,52,0
623,Music,6,Short,3,1,516,5,53,1
623,Music,6,Long,6,1,747,6,54,1
623,Music,1,Long,6,0,849,7,55,0
623,Music,3,Long,1,0,1088,8,56,0
623,Music,4,Long,3,1,2839,9,57,1
623,Music,1,Short,4,0,785,10,58,0
623,Music,2,Short,1,0,712,11,59,0
623,Music,2,Long,2,0,1245,12,60,0
623,Music,2,Long,2,0,744,13,61,0
623,Music,4,Long,2,1,830,14,62,1
623,Music,5,Long,4,1,789,15,63,1
623,Music,3,Short,5,0,712,16,64,0
623,Music,4,Short,3,0,1673,17,65,0
623,Music,6,Long,4,1,646,18,66,1
623,Music,1,Short,6,0,638,19,67,0
623,Music,2,Short,1,0,654,20,68,0
623,Music,3,Long,2,0,804,21,69,0
623,Music,1,Long,3,0,718,22,70,0
623,Music,5,Short,1,1,583,23,71,1
623,Music,6,Short,5,1,634,24,72,1
624,Silence,4,Short,4,1,679,1,1,1
624,Silence,6,Long,4,1,690,2,2,1
624,Silence,3,Short,6,1,895,3,3,1
624,Silence,5,Short,3,1,786,4,4,1
624,Silence,6,Short,5,1,612,5,5,1
624,Silence,1,Short,6,0,572,6,6,0
624,Silence,2,Short,1,0,613,7,7,0
624,Silence,3,Long,2,1,846,8,8,1
624,Silence,4,Long,3,1,793,9,9,1
624,Silence,2,Long,4,0,490,10,10,0
624,Silence,5,Long,2,1,645,11,11,1
624,Silence,1,Long,5,0,589,12,12,0
624,Silence,6,Long,1,1,568,13,13,1
624,Silence,5,Short,6,1,819,14,14,1
624,Silence,1,Long,5,0,590,15,15,0
624,Silence,1,Short,1,0,573,16,16,0
624,Silence,4,Long,1,1,725,17,17,1
624,Silence,3,Long,4,1,797,18,18,1
624,Silence,2,Short,3,0,575,19,19,0
624,Silence,6,Short,2,1,547,20,20,1
624,Silence,4,Short,6,1,670,21,21,1
624,Silence,2,Long,4,0,434,22,22,0
624,Silence,3,Short,2,0,925,23,23,0
624,Silence,5,Long,3,1,604,24,24,1
624,Music,4,Short,4,1,1277,1,25,1
624,Music,5,Short,4,1,660,2,26,1
624,Music,3,Short,5,0,596,3,27,0
624,Music,6,Short,3,1,497,4,28,1
624,Music,4,Long,6,1,582,5,29,1
624,Music,2,Long,4,0,549,6,30,0
624,Music,2,Short,2,0,562,7,31,0
624,Music,1,Short,2,0,610,8,32,0
624,Music,1,Long,1,0,562,9,33,0
624,Music,3,Long,1,1,533,10,34,1
624,Music,6,Long,3,1,747,11,35,1
624,Music,5,Long,6,1,555,12,36,1
624,Music,1,Short,5,0,547,13,37,0
624,Music,5,Long,1,1,587,14,38,1
624,Music,1,Long,5,0,556,15,39,0
624,Music,6,Long,1,1,437,16,40,1
624,Music,3,Long,6,1,915,17,41,1
624,Music,4,Long,3,1,587,18,42,1
624,Music,3,Short,4,1,797,19,43,1
624,Music,6,Short,3,1,650,20,44,1
624,Music,2,Short,6,0,599,21,45,0
624,Music,4,Short,2,1,625,22,46,1
624,Music,2,Long,4,0,521,23,47,0
624,Music,5,Short,2,1,722,24,48,1
624,Noise,4,Short,4,1,1352,1,49,1
624,Noise,3,Long,4,1,650,2,50,1
624,Noise,6,Short,3,1,659,3,51,1
624,Noise,2,Long,6,0,621,4,52,0
624,Noise,3,Short,2,0,1228,5,53,0
624,Noise,5,Short,3,1,544,6,54,1
624,Noise,2,Short,5,0,549,7,55,0
624,Noise,6,Long,2,1,637,8,56,1
624,Noise,4,Long,6,1,942,9,57,1
624,Noise,1,Long,4,0,659,10,58,0
624,Noise,1,Short,1,0,765,11,59,0
624,Noise,5,Long,1,1,585,12,60,1
624,Noise,4,Short,5,1,1136,13,61,1
624,Noise,6,Short,4,1,759,14,62,1
624,Noise,2,Long,6,0,640,15,63,0
624,Noise,6,Long,2,1,713,16,64,1
624,Noise,1,Short,6,0,695,17,65,0
624,Noise,4,Long,1,1,764,18,66,1
624,Noise,5,Short,4,1,750,19,67,1
624,Noise,5,Long,5,1,675,20,68,1
624,Noise,2,Short,5,0,666,21,69,0
624,Noise,3,Short,2,0,1232,22,70,0
624,Noise,1,Long,3,0,766,23,71,0
624,Noise,3,Long,1,1,1470,24,72,1
625,Noise,4,Short,4,1,973,1,1,1
625,Noise,5,Long,4,1,846,2,2,1
625,Noise,1,Short,5,0,778,3,3,0
625,Noise,2,Long,1,0,852,4,4,0
625,Noise,4,Long,2,1,961,5,5,1
625,Noise,3,Long,4,0,2157,6,6,0
625,Noise,6,Long,3,1,779,7,7,1
625,Noise,3,Short,6,0,862,8,8,0
625,Noise,1,Long,3,0,895,9,9,0
625,Noise,6,Short,1,1,683,10,10,1
625,Noise,2,Short,6,0,766,11,11,0
625,Noise,5,Short,2,1,944,12,12,1
625,Noise,6,Long,5,1,1109,13,13,1
625,Noise,4,Short,6,0,782,14,14,0
625,Noise,2,Short,4,0,900,15,15,0
625,Noise,3,Long,2,0,2138,16,16,0
625,Noise,6,Short,3,1,629,17,17,1
625,Noise,5,Short,6,1,1064,18,18,1
625,Noise,5,Long,5,1,809,19,19,1
625,Noise,4,Long,5,0,1753,20,20,0
625,Noise,1,Short,4,0,924,21,21,0
625,Noise,1,Long,1,0,761,22,22,0
625,Noise,2,Long,1,0,800,23,23,0
625,Noise,3,Short,2,0,967,24,24,0
625,Music,4,Short,4,0,915,1,25,0
625,Music,1,Short,4,0,750,2,26,0
625,Music,6,Short,1,1,684,3,27,1
625,Music,5,Long,6,1,1397,4,28,1
625,Music,2,Long,5,0,724,5,29,0
625,Music,3,Short,2,0,697,6,30,0
625,Music,5,Short,3,1,655,7,31,1
625,Music,6,Long,5,1,729,8,32,1
625,Music,2,Short,6,0,710,9,33,0
625,Music,3,Long,2,0,725,10,34,0
625,Music,4,Long,3,1,1517,11,35,1
625,Music,1,Long,4,0,598,12,36,0
625,Music,5,Short,1,1,688,13,37,1
625,Music,6,Long,5,1,657,14,38,1
625,Music,3,Long,6,0,2141,15,39,0
625,Music,1,Short,3,0,765,16,40,0
625,Music,4,Long,1,0,1467,17,41,0
625,Music,5,Long,4,1,782,18,42,1
625,Music,1,Long,5,0,660,19,43,0
625,Music,2,Long,1,0,599,20,44,0
625,Music,3,Short,2,0,1458,21,45,0
625,Music,6,Short,3,1,650,22,46,1
625,Music,4,Short,6,0,1060,23,47,0
625,Music,2,Short,4,0,625,24,48,0
625,Silence,4,Short,4,0,1604,1,49,0
625,Silence,2,Long,4,0,1008,2,50,0
625,Silence,3,Short,2,1,946,3,51,1
625,Silence,4,Long,3,1,756,4,52,1
625,Silence,3,Long,4,0,1035,5,53,0
625,Silence,5,Long,3,1,782,6,54,1
625,Silence,1,Long,5,0,637,7,55,0
625,Silence,1,Short,1,0,741,8,56,0
625,Silence,5,Short,1,1,748,9,57,1
625,Silence,6,Short,5,1,832,10,58,1
625,Silence,6,Long,6,1,889,11,59,1
625,Silence,2,Short,6,0,748,12,60,0
625,Silence,1,Long,2,0,754,13,61,0
625,Silence,1,Short,1,0,542,14,62,0
625,Silence,4,Long,1,1,801,15,63,1
625,Silence,6,Long,4,1,963,16,64,1
625,Silence,3,Short,6,0,894,17,65,0
625,Silence,4,Short,3,1,906,18,66,1
625,Silence,2,Short,4,0,697,19,67,0
625,Silence,2,Long,2,0,800,20,68,0
625,Silence,3,Long,2,1,1901,21,69,1
625,Silence,5,Long,3,1,714,22,70,1
625,Silence,6,Short,5,1,720,23,71,1
625,Silence,5,Short,6,1,734,24,72,1
626,Noise,4,Short,4,1,828,1,1,1
626,Noise,2,Long,4,0,796,2,2,0
626,Noise,5,Short,2,1,784,3,3,1
626,Noise,5,Long,5,1,802,4,4,1
626,Noise,4,Long,5,1,692,5,5,1
626,Noise,6,Short,4,1,751,6,6,1
626,Noise,6,Long,6,1,724,7,7,1
626,Noise,1,Long,6,0,686,8,8,0
626,Noise,3,Short,1,0,770,9,9,0
626,Noise,2,Short,3,0,781,10,10,0
626,Noise,3,Long,2,0,953,11,11,0
626,Noise,1,Short,3,0,862,12,12,0
626,Noise,2,Long,1,0,875,13,13,0
626,Noise,5,Long,2,1,778,14,14,1
626,Noise,1,Short,5,0,973,15,15,0
626,Noise,4,Long,1,1,988,16,16,1
626,Noise,3,Short,4,0,1219,17,17,0
626,Noise,6,Long,3,1,771,18,18,1
626,Noise,5,Short,6,1,869,19,19,1
626,Noise,2,Short,5,0,669,20,20,0
626,Noise,4,Short,2,0,1436,21,21,0
626,Noise,3,Long,4,0,1068,22,22,0
626,Noise,6,Short,3,1,703,23,23,1
626,Noise,1,Long,6,0,1018,24,24,0
626,Silence,4,Short,4,1,1271,1,25,1
626,Silence,3,Short,4,0,1233,2,26,0
626,Silence,1,Short,3,0,799,3,27,0
626,Silence,6,Short,1,1,669,4,28,1
626,Silence,2,Long,6,0,901,5,29,0
626,Silence,1,Long,2,0,826,6,30,0
626,Silence,5,Short,1,1,533,7,31,1
626,Silence,4,Long,5,1,996,8,32,1
626,Silence,2,Short,4,0,667,9,33,0
626,Silence,6,Long,2,1,623,10,34,1
626,Silence,5,Long,6,1,643,11,35,1
626,Silence,3,Long,5,0,808,12,36,0
626,Silence,3,Short,3,0,960,13,37,0
626,Silence,2,Short,3,0,1002,14,38,0
626,Silence,6,Short,2,1,865,15,39,1
626,Silence,1,Short,6,0,734,16,40,0
626,Silence,3,Long,1,0,977,17,41,0
626,Silence,4,Short,3,1,723,18,42,1
626,Silence,2,Long,4,0,745,19,43,0
626,Silence,4,Long,2,1,839,20,44,1
626,Silence,5,Short,4,1,666,21,45,1
626,Silence,6,Long,5,1,626,22,46,1
626,Silence,1,Long,6,0,732,23,47,0
626,Silence,5,Long,1,1,643,24,48,1
626,Music,4,Short,4,0,983,1,49,0
626,Music,3,Long,4,0,721,2,50,0
626,Music,1,Short,3,0,687,3,51,0
626,Music,6,Short,1,1,627,4,52,1
626,Music,5,Long,6,1,602,5,53,1
626,Music,2,Short,5,0,657,6,54,0
626,Music,3,Short,2,0,593,7,55,0
626,Music,1,Long,3,0,662,8,56,0
626,Music,2,Long,1,0,862,9,57,0
626,Music,5,Short,2,1,716,10,58,1
626,Music,4,Long,5,1,784,11,59,1
626,Music,6,Long,4,1,622,12,60,1
626,Music,3,Short,6,0,412,13,61,0
626,Music,2,Long,3,0,730,14,62,0
626,Music,5,Long,2,1,563,15,63,1
626,Music,6,Long,5,1,646,16,64,1
626,Music,5,Short,6,1,532,17,65,1
626,Music,4,Short,5,0,643,18,66,0
626,Music,4,Long,4,0,669,19,67,0
626,Music,3,Long,4,0,540,20,68,0
626,Music,6,Short,3,1,728,21,69,1
626,Music,1,Long,6,0,719,22,70,0
626,Music,2,Short,1,0,612,23,71,0
626,Music,1,Short,2,0,622,24,72,0
627,Music,4,Short,4,1,689,1,1,1
627,Music,6,Short,4,1,606,2,2,1
627,Music,4,Long,6,0,660,3,3,0
627,Music,5,Long,4,0,579,4,4,0
627,Music,3,Long,5,1,565,5,5,1
627,Music,1,Short,3,0,709,6,6,0
627,Music,2,Short,1,0,558,7,7,0
627,Music,5,Short,2,1,565,8,8,1
627,Music,1,Long,5,0,573,9,9,0
627,Music,2,Long,1,0,536,10,10,0
627,Music,6,Long,2,1,428,11,11,1
627,Music,3,Short,6,0,518,12,12,0
627,Music,2,Long,3,0,678,13,13,0
627,Music,3,Short,2,0,483,14,14,0
627,Music,5,Long,3,1,569,15,15,1
627,Music,4,Short,5,1,629,16,16,1
627,Music,6,Short,4,1,664,17,17,1
627,Music,2,Short,6,0,526,18,18,0
627,Music,4,Long,2,1,413,19,19,1
627,Music,3,Long,4,0,462,20,20,0
627,Music,6,Long,3,1,776,21,21,1
627,Music,5,Short,6,1,475,22,22,1
627,Music,1,Long,5,0,482,23,23,0
627,Music,1,Short,1,0,553,24,24,0
627,Noise,4,Short,4,1,503,1,25,1
627,Noise,3,Short,4,1,578,2,26,1
627,Noise,2,Long,3,0,534,3,27,0
627,Noise,2,Short,2,0,462,4,28,0
627,Noise,1,Long,2,0,583,5,29,0
627,Noise,5,Short,1,1,424,6,30,1
627,Noise,6,Long,5,1,483,7,31,1
627,Noise,3,Long,6,0,747,8,32,0
627,Noise,5,Long,3,1,427,9,33,1
627,Noise,4,Long,5,0,952,10,34,0
627,Noise,1,Short,4,0,569,11,35,0
627,Noise,6,Short,1,1,405,12,36,1
627,Noise,4,Short,6,0,839,13,37,0
627,Noise,5,Long,4,1,388,14,38,1
627,Noise,5,Short,5,1,434,15,39,1
627,Noise,6,Long,5,1,482,16,40,1
627,Noise,1,Short,6,0,585,17,41,0
627,Noise,6,Short,1,1,398,18,42,1
627,Noise,3,Short,6,0,604,19,43,0
627,Noise,2,Long,3,0,756,20,44,0
627,Noise,3,Long,2,0,587,21,45,0
627,Noise,4,Long,3,1,444,22,46,1
627,Noise,2,Short,4,0,424,23,47,0
627,Noise,1,Long,2,0,693,24,48,0
627,Silence,4,Short,4,1,837,1,49,1
627,Silence,4,Long,4,1,474,2,50,1
627,Silence,2,Long,4,0,582,3,51,0
627,Silence,1,Long,2,0,629,4,52,0
627,Silence,5,Short,1,1,560,5,53,1
627,Silence,6,Short,5,1,664,6,54,1
627,Silence,5,Long,6,1,505,7,55,1
627,Silence,2,Short,5,0,657,8,56,0
627,Silence,6,Long,2,1,716,9,57,1
627,Silence,3,Short,6,0,565,10,58,0
627,Silence,3,Long,3,0,680,11,59,0
627,Silence,1,Short,3,0,913,12,60,0
627,Silence,6,Short,1,1,419,13,61,1
627,Silence,5,Long,6,0,557,14,62,0
627,Silence,2,Long,5,0,759,15,63,0
627,Silence,2,Short,2,0,628,16,64,0
627,Silence,4,Long,2,0,1595,17,65,0
627,Silence,1,Long,4,0,720,18,66,0
627,Silence,5,Short,1,1,539,19,67,1
627,Silence,6,Long,5,1,671,20,68,1
627,Silence,1,Short,6,0,619,21,69,0
627,Silence,3,Short,1,0,606,22,70,0
627,Silence,3,Long,3,0,472,23,71,0
627,Silence,4,Short,3,1,408,24,72,1
628,Music,4,Short,4,1,713,1,1,1
628,Music,2,Short,4,0,779,2,2,0
628,Music,5,Long,2,1,637,3,3,1
628,Music,1,Short,5,0,697,4,4,0
628,Music,3,Short,1,1,615,5,5,1
628,Music,1,Long,3,0,427,6,6,0
628,Music,5,Short,1,1,621,7,7,1
628,Music,4,Long,5,1,768,8,8,1
628,Music,3,Long,4,1,422,9,9,1
628,Music,6,Long,3,1,533,10,10,1
628,Music,6,Short,6,1,548,11,11,1
628,Music,2,Long,6,0,323,12,12,0
628,Music,1,Short,2,0,524,13,13,0
628,Music,2,Short,1,0,564,14,14,0
628,Music,3,Long,2,0,497,15,15,0
628,Music,6,Short,3,1,50,16,16,1
628,Music,6,Long,6,1,458,17,17,1
628,Music,1,Long,6,0,523,18,18,0
628,Music,3,Short,1,0,560,19,19,0
628,Music,4,Long,3,0,518,20,20,0
628,Music,5,Long,4,1,361,21,21,1
628,Music,5,Short,5,1,385,22,22,1
628,Music,2,Long,5,0,349,23,23,0
628,Music,4,Short,2,0,695,24,24,0
628,Silence,4,Short,4,1,748,1,25,1
628,Silence,1,Short,4,0,475,2,26,0
628,Silence,1,Long,1,0,495,3,27,0
628,Silence,2,Short,1,0,549,4,28,0
628,Silence,6,Short,2,1,396,5,29,1
628,Silence,4,Long,6,1,391,6,30,1
628,Silence,2,Long,4,0,363,7,31,0
628,Silence,6,Long,2,1,451,8,32,1
628,Silence,3,Short,6,0,361,9,33,0
628,Silence,5,Long,3,1,676,10,34,1
628,Silence,3,Long,5,0,587,11,35,0
628,Silence,5,Short,3,1,433,12,36,1
628,Silence,3,Long,5,0,668,13,37,0
628,Silence,5,Long,3,1,731,14,38,1
628,Silence,6,Short,5,1,557,15,39,1
628,Silence,1,Long,6,0,401,16,40,0
628,Silence,5,Short,1,1,412,17,41,1
628,Silence,3,Short,5,0,363,18,42,0
628,Silence,1,Short,3,0,822,19,43,0
628,Silence,2,Long,1,1,887,20,44,1
628,Silence,2,Short,2,0,724,21,45,0
628,Silence,4,Long,2,1,613,22,46,1
628,Silence,4,Short,4,0,521,23,47,0
628,Silence,6,Long,4,1,642,24,48,1
628,Noise,4,Short,4,0,823,1,49,0
628,Noise,1,Long,4,0,718,2,50,0
628,Noise,5,Short,1,1,648,3,51,1
628,Noise,6,Long,5,1,527,4,52,1
628,Noise,2,Long,6,0,636,5,53,0
628,Noise,4,Long,2,0,706,6,54,0
628,Noise,6,Short,4,1,521,7,55,1
628,Noise,2,Short,6,0,535,8,56,0
628,Noise,1,Short,2,0,665,9,57,0
628,Noise,3,Long,1,0,805,10,58,0
628,Noise,5,Long,3,1,566,11,59,1
628,Noise,3,Short,5,0,739,12,60,0
628,Noise,6,Short,3,1,587,13,61,1
628,Noise,4,Short,6,0,589,14,62,0
628,Noise,2,Short,4,0,823,15,63,0
628,Noise,2,Long,2,1,553,16,64,1
628,Noise,5,Long,2,1,688,17,65,1
628,Noise,3,Long,5,0,308,18,66,0
628,Noise,1,Long,3,0,928,19,67,0
628,Noise,5,Short,1,1,775,20,68,1
628,Noise,3,Short,5,0,652,21,69,0
628,Noise,1,Short,3,0,761,22,70,0
628,Noise,6,Long,1,1,595,23,71,1
628,Noise,4,Long,6,0,709,24,72,0
629,Silence,4,Short,4,1,1304,1,1,1
629,Silence,2,Long,4,0,671,2,2,0
629,Silence,3,Short,2,1,726,3,3,1
629,Silence,4,Long,3,1,870,4,4,1
629,Silence,6,Short,4,1,2161,5,5,1
629,Silence,5,Long,6,1,962,6,6,1
629,Silence,1,Short,5,0,765,7,7,0
629,Silence,6,Long,1,1,822,8,8,1
629,Silence,1,Long,6,0,774,9,9,0
629,Silence,3,Long,1,0,1186,10,10,0
629,Silence,5,Short,3,1,604,11,11,1
629,Silence,2,Short,5,0,1699,12,12,0
629,Silence,4,Short,2,1,1704,13,13,1
629,Silence,3,Long,4,1,2790,14,14,1
629,Silence,6,Long,3,1,1309,15,15,1
629,Silence,1,Short,6,0,679,16,16,0
629,Silence,1,Long,1,0,866,17,17,0
629,Silence,6,Short,1,1,758,18,18,1
629,Silence,4,Long,6,1,1927,19,19,1
629,Silence,3,Short,4,0,1631,20,20,0
629,Silence,2,Short,3,0,1088,21,21,0
629,Silence,5,Long,2,1,911,22,22,1
629,Silence,5,Short,5,1,985,23,23,1
629,Silence,2,Long,5,0,691,24,24,0
629,Noise,4,Short,4,1,1180,1,25,1
629,Noise,1,Short,4,0,606,2,26,0
629,Noise,5,Long,1,1,579,3,27,1
629,Noise,4,Long,5,1,947,4,28,1
629,Noise,2,Long,4,0,621,5,29,0
629,Noise,1,Long,2,0,632,6,30,0
629,Noise,6,Short,1,1,505,7,31,1
629,Noise,2,Short,6,0,519,8,32,0
629,Noise,5,Short,2,1,551,9,33,1
629,Noise,3,Short,5,0,869,10,34,0
629,Noise,3,Long,3,1,1668,11,35,1
629,Noise,6,Long,3,1,664,12,36,1
629,Noise,4,Long,6,1,2252,13,37,1
629,Noise,1,Long,4,0,653,14,38,0
629,Noise,3,Short,1,0,690,15,39,0
629,Noise,5,Long,3,1,1317,16,40,1
629,Noise,6,Short,5,1,838,17,41,1
629,Noise,4,Short,6,0,838,18,42,0
629,Noise,2,Short,4,0,1895,19,43,0
629,Noise,1,Short,2,0,773,20,44,0
629,Noise,5,Short,1,1,664,21,45,1
629,Noise,3,Long,5,0,1593,22,46,0
629,Noise,2,Long,3,0,782,23,47,0
629,Noise,6,Long,2,1,970,24,48,1
629,Music,4,Short,4,0,1018,1,49,0
629,Music,3,Long,4,0,1256,2,50,0
629,Music,6,Long,3,1,578,3,51,1
629,Music,1,Long,6,0,683,4,52,0
629,Music,1,Short,1,0,627,5,53,0
629,Music,5,Short,1,1,1282,6,54,1
629,Music,6,Short,5,1,740,7,55,1
629,Music,2,Short,6,0,604,8,56,0
629,Music,3,Short,2,0,984,9,57,0
629,Music,2,Long,3,0,687,10,58,0
629,Music,4,Long,2,1,1968,11,59,1
629,Music,5,Long,4,1,851,12,60,1
629,Music,3,Short,5,0,866,13,61,0
629,Music,6,Short,3,1,748,14,62,1
629,Music,1,Short,6,0,627,15,63,0
629,Music,5,Long,1,1,801,16,64,1
629,Music,4,Short,5,0,1126,17,65,0
629,Music,5,Short,4,1,533,18,66,1
629,Music,4,Long,5,0,1367,19,67,0
629,Music,6,Long,4,1,709,20,68,1
629,Music,2,Long,6,0,563,21,69,0
629,Music,2,Short,2,0,916,22,70,0
629,Music,3,Long,2,0,1167,23,71,0
629,Music,1,Long,3,0,624,24,72,0
630,Silence,4,Short,4,1,1076,1,1,1
630,Silence,6,Long,4,1,1294,2,2,1
630,Silence,1,Short,6,0,1012,3,3,0
630,Silence,2,Long,1,0,1140,4,4,0
630,Silence,3,Long,2,1,873,5,5,1
630,Silence,5,Long,3,1,904,6,6,1
630,Silence,5,Short,5,1,744,7,7,1
630,Silence,3,Short,5,0,989,8,8,0
630,Silence,2,Short,3,0,1017,9,9,0
630,Silence,4,Long,2,1,844,10,10,1
630,Silence,1,Long,4,0,1090,11,11,0
630,Silence,6,Short,1,1,702,12,12,1
630,Silence,6,Long,6,1,974,13,13,1
630,Silence,6,Short,6,1,1078,14,14,1
630,Silence,3,Long,6,0,1082,15,15,0
630,Silence,4,Short,3,1,912,16,16,1
630,Silence,4,Long,4,1,793,17,17,1
630,Silence,2,Short,4,0,729,18,18,0
630,Silence,3,Short,2,0,1794,19,19,0
630,Silence,5,Long,3,1,1184,20,20,1
630,Silence,1,Long,5,0,834,21,21,0
630,Silence,5,Short,1,1,699,22,22,1
630,Silence,2,Long,5,0,744,23,23,0
630,Silence,1,Short,2,0,683,24,24,0
630,Music,4,Short,4,1,883,1,25,1
630,Music,6,Long,4,1,770,2,26,1
630,Music,5,Short,6,1,657,3,27,1
630,Music,2,Long,5,0,723,4,28,0
630,Music,2,Short,2,0,723,5,29,0
630,Music,4,Long,2,1,646,6,30,1
630,Music,6,Short,4,1,695,7,31,1
630,Music,3,Short,6,0,623,8,32,0
630,Music,5,Long,3,1,690,9,33,1
630,Music,1,Short,5,0,760,10,34,0
630,Music,1,Long,1,0,598,11,35,0
630,Music,3,Long,1,1,723,12,36,1
630,Music,1,Short,3,0,529,13,37,0
630,Music,5,Short,1,1,665,14,38,1
630,Music,6,Long,5,1,654,15,39,1
630,Music,3,Short,6,0,722,16,40,0
630,Music,5,Long,3,1,765,17,41,1
630,Music,2,Long,5,0,625,18,42,0
630,Music,1,Long,2,0,728,19,43,0
630,Music,3,Long,1,0,1280,20,44,0
630,Music,4,Long,3,1,657,21,45,1
630,Music,2,Short,4,0,740,22,46,0
630,Music,4,Short,2,1,668,23,47,1
630,Music,6,Short,4,1,697,24,48,1
630,Noise,4,Short,4,1,499,1,49,1
630,Noise,3,Short,4,0,598,2,50,0
630,Noise,5,Long,3,1,400,3,51,1
630,Noise,6,Short,5,1,670,4,52,1
630,Noise,5,Short,6,1,464,5,53,1
630,Noise,2,Long,5,0,334,6,54,0
630,Noise,1,Long,2,0,719,7,55,0
630,Noise,1,Short,1,0,405,8,56,0
630,Noise,6,Long,1,1,559,9,57,1
630,Noise,3,Long,6,0,2057,10,58,0
630,Noise,4,Long,3,1,342,11,59,1
630,Noise,2,Short,4,0,616,12,60,0
630,Noise,4,Short,2,1,555,13,61,1
630,Noise,2,Short,4,0,587,14,62,0
630,Noise,6,Long,2,1,633,15,63,1
630,Noise,4,Long,6,0,426,16,64,0
630,Noise,3,Long,4,0,690,17,65,0
630,Noise,5,Long,3,1,623,18,66,1
630,Noise,5,Short,5,1,583,19,67,1
630,Noise,2,Long,5,0,377,20,68,0
630,Noise,6,Short,2,1,560,21,69,1
630,Noise,1,Short,6,0,608,22,70,0
630,Noise,3,Short,1,1,642,23,71,1
630,Noise,1,Long,3,0,1140,24,72,0
631,Noise,4,Short,4,1,1598,1,1,1
631,Noise,5,Short,4,1,2015,2,2,1
631,Noise,5,Long,5,1,1776,3,3,1
631,Noise,3,Short,5,0,684,4,4,0
631,Noise,1,Short,3,0,703,5,5,0
631,Noise,2,Short,1,0,1028,6,6,0
631,Noise,2,Long,2,0,1217,7,7,0
631,Noise,6,Long,2,1,961,8,8,1
631,Noise,6,Short,6,1,564,9,9,1
631,Noise,3,Long,6,0,612,10,10,0
631,Noise,4,Long,3,0,1456,11,11,0
631,Noise,1,Long,4,0,1679,12,12,0
631,Noise,2,Short,1,0,1183,13,13,0
631,Noise,2,Long,2,0,2129,14,14,0
631,Noise,4,Long,2,1,1548,15,15,1
631,Noise,3,Long,4,0,2046,16,16,0
631,Noise,3,Short,3,0,1861,17,17,0
631,Noise,1,Long,3,0,1399,18,18,0
631,Noise,5,Long,1,1,739,19,19,1
631,Noise,6,Short,5,1,1761,20,20,1
631,Noise,6,Long,6,1,932,21,21,1
631,Noise,4,Short,6,0,1472,22,22,0
631,Noise,5,Short,4,1,840,23,23,1
631,Noise,1,Short,5,0,1181,24,24,0
631,Music,4,Short,4,0,807,1,25,0
631,Music,5,Long,4,1,634,2,26,1
631,Music,6,Long,5,1,887,3,27,1
631,Music,2,Long,6,0,711,4,28,0
631,Music,1,Long,2,0,1185,5,29,0
631,Music,3,Long,1,0,713,6,30,0
631,Music,1,Short,3,0,731,7,31,0
631,Music,5,Short,1,1,629,8,32,1
631,Music,6,Short,5,1,582,9,33,1
631,Music,3,Short,6,0,549,10,34,0
631,Music,4,Long,3,1,968,11,35,1
631,Music,2,Short,4,0,602,12,36,0
631,Music,3,Short,2,0,681,13,37,0
631,Music,5,Short,3,1,677,14,38,1
631,Music,1,Long,5,0,655,15,39,0
631,Music,4,Long,1,1,1076,16,40,1
631,Music,2,Long,4,0,866,17,41,0
631,Music,6,Short,2,1,762,18,42,1
631,Music,5,Long,6,0,816,19,43,0
631,Music,6,Long,5,1,503,20,44,1
631,Music,2,Short,6,0,652,21,45,0
631,Music,3,Long,2,0,732,22,46,0
631,Music,1,Short,3,0,928,23,47,0
631,Music,4,Short,1,0,1993,24,48,0
631,Silence,4,Short,4,1,2020,1,49,1
631,Silence,3,Short,4,0,687,2,50,0
631,Silence,1,Short,3,0,847,3,51,0
631,Silence,6,Long,1,1,736,4,52,1
631,Silence,1,Long,6,0,771,5,53,0
631,Silence,4,Long,1,1,764,6,54,1
631,Silence,5,Long,4,0,1338,7,55,0
631,Silence,2,Short,5,0,1058,8,56,0
631,Silence,5,Short,2,1,799,9,57,1
631,Silence,2,Long,5,0,655,10,58,0
631,Silence,6,Short,2,1,649,11,59,1
631,Silence,3,Long,6,0,693,12,60,0
631,Silence,1,Long,3,0,936,13,61,0
631,Silence,2,Short,1,0,813,14,62,0
631,Silence,1,Short,2,0,760,15,63,0
631,Silence,2,Long,1,0,587,16,64,0
631,Silence,5,Short,2,1,432,17,65,1
631,Silence,6,Long,5,1,441,18,66,1
631,Silence,4,Short,6,0,481,19,67,0
631,Silence,3,Short,4,0,906,20,68,0
631,Silence,3,Long,3,0,1094,21,69,0
631,Silence,5,Long,3,1,1088,22,70,1
631,Silence,6,Short,5,1,676,23,71,1
631,Silence,4,Long,6,0,841,24,72,0
632,Noise,4,Short,4,1,817,1,1,1
632,Noise,1,Short,4,0,658,2,2,0
632,Noise,5,Long,1,1,773,3,3,1
632,Noise,5,Short,5,1,503,4,4,1
632,Noise,1,Long,5,0,549,5,5,0
632,Noise,4,Long,1,1,624,6,6,1
632,Noise,3,Short,4,0,578,7,7,0
632,Noise,6,Short,3,1,465,8,8,1
632,Noise,6,Long,6,1,723,9,9,1
632,Noise,2,Short,6,0,550,10,10,0
632,Noise,2,Long,2,0,492,11,11,0
632,Noise,3,Long,2,0,866,12,12,0
632,Noise,1,Long,3,0,674,13,13,0
632,Noise,4,Long,1,1,596,14,14,1
632,Noise,6,Long,4,1,577,15,15,1
632,Noise,2,Short,6,0,593,16,16,0
632,Noise,4,Short,2,0,1434,17,17,0
632,Noise,5,Short,4,1,735,18,18,1
632,Noise,1,Short,5,0,558,19,19,0
632,Noise,2,Long,1,0,737,20,20,0
632,Noise,6,Short,2,1,672,21,21,1
632,Noise,3,Short,6,0,494,22,22,0
632,Noise,3,Long,3,0,469,23,23,0
632,Noise,5,Long,3,1,623,24,24,1
632,Silence,4,Short,4,1,691,1,25,1
632,Silence,3,Long,4,0,617,2,26,0
632,Silence,1,Short,3,0,591,3,27,0
632,Silence,6,Short,1,1,502,4,28,1
632,Silence,1,Long,6,0,633,5,29,0
632,Silence,3,Short,1,0,812,6,30,0
632,Silence,6,Long,3,1,598,7,31,1
632,Silence,2,Long,6,0,519,8,32,0
632,Silence,4,Long,2,0,622,9,33,0
632,Silence,2,Short,4,0,556,10,34,0
632,Silence,5,Long,2,1,569,11,35,1
632,Silence,5,Short,5,1,644,12,36,1
632,Silence,1,Short,5,0,564,13,37,0
632,Silence,3,Short,1,1,756,14,38,1
632,Silence,3,Long,3,0,801,15,39,0
632,Silence,1,Long,3,0,673,16,40,0
632,Silence,5,Long,1,1,590,17,41,1
632,Silence,2,Short,5,0,497,18,42,0
632,Silence,6,Short,2,1,528,19,43,1
632,Silence,2,Long,6,0,606,20,44,0
632,Silence,4,Long,2,0,615,21,45,0
632,Silence,4,Short,4,0,528,22,46,0
632,Silence,6,Long,4,1,620,23,47,1
632,Silence,5,Short,6,1,1214,24,48,1
632,Music,4,Short,4,0,642,1,49,0
632,Music,1,Short,4,0,588,2,50,0
632,Music,5,Short,1,1,482,3,51,1
632,Music,2,Short,5,0,516,4,52,0
632,Music,1,Long,2,0,595,5,53,0
632,Music,6,Short,1,1,401,6,54,1
632,Music,4,Long,6,0,561,7,55,0
632,Music,3,Long,4,0,775,8,56,0
632,Music,3,Short,3,0,451,9,57,0
632,Music,2,Long,3,0,442,10,58,0
632,Music,5,Long,2,1,370,11,59,1
632,Music,6,Long,5,1,542,12,60,1
632,Music,5,Long,6,1,567,13,61,1
632,Music,6,Long,5,1,447,14,62,1
632,Music,6,Short,6,1,454,15,63,1
632,Music,1,Long,6,0,363,16,64,0
632,Music,2,Long,1,0,439,17,65,0
632,Music,5,Short,2,1,515,18,66,1
632,Music,3,Short,5,0,382,19,67,0
632,Music,3,Long,3,0,594,20,68,0
632,Music,4,Short,3,1,782,21,69,1
632,Music,1,Short,4,0,480,22,70,0
632,Music,4,Long,1,1,603,23,71,1
632,Music,2,Short,4,0,483,24,72,0
633,Music,4,Short,4,0,1455,1,1,0
633,Music,6,Long,4,1,664,2,2,1
633,Music,3,Long,6,0,473,3,3,0
633,Music,5,Long,3,1,588,4,4,1
633,Music,2,Long,5,0,691,5,5,0
633,Music,4,Long,2,0,788,6,6,0
633,Music,1,Long,4,0,734,7,7,0
633,Music,1,Short,1,0,630,8,8,0
633,Music,6,Short,1,1,691,9,9,1
633,Music,3,Short,6,0,654,10,10,0
633,Music,5,Short,3,1,544,11,11,1
633,Music,2,Short,5,0,633,12,12,0
633,Music,1,Short,2,0,563,13,13,0
633,Music,5,Short,1,1,486,14,14,1
633,Music,3,Long,5,0,840,15,15,0
633,Music,6,Long,3,1,546,16,16,1
633,Music,4,Short,6,0,474,17,17,0
633,Music,3,Short,4,0,574,18,18,0
633,Music,4,Long,3,1,799,19,19,1
633,Music,2,Long,4,0,423,20,20,0
633,Music,5,Long,2,1,793,21,21,1
633,Music,2,Short,5,0,491,22,22,0
633,Music,6,Short,2,1,528,23,23,1
633,Music,1,Long,6,0,414,24,24,0
633,Noise,4,Short,4,1,1519,1,25,1
633,Noise,1,Long,4,0,605,2,26,0
633,Noise,6,Short,1,1,531,3,27,1
633,Noise,3,Short,6,0,496,4,28,0
633,Noise,4,Long,3,1,1325,5,29,1
633,Noise,5,Short,4,1,663,6,30,1
633,Noise,2,Long,5,0,644,7,31,0
633,Noise,5,Long,2,1,552,8,32,1
633,Noise,1,Short,5,0,533,9,33,0
633,Noise,3,Long,1,0,590,10,34,0
633,Noise,6,Long,3,1,575,11,35,1
633,Noise,2,Short,6,0,561,12,36,0
633,Noise,5,Long,2,1,602,13,37,1
633,Noise,4,Long,5,1,856,14,38,1
633,Noise,5,Short,4,1,589,15,39,1
633,Noise,4,Short,5,0,1076,16,40,0
633,Noise,3,Short,4,0,628,17,41,0
633,Noise,1,Long,3,0,881,18,42,0
633,Noise,1,Short,1,0,592,19,43,0
633,Noise,2,Short,1,0,530,20,44,0
633,Noise,3,Long,2,0,535,21,45,0
633,Noise,6,Long,3,1,614,22,46,1
633,Noise,2,Long,6,0,648,23,47,0
633,Noise,6,Short,2,1,948,24,48,1
633,Silence,4,Short,4,0,1460,1,49,0
633,Silence,1,Short,4,0,651,2,50,0
633,Silence,6,Short,1,1,471,3,51,1
633,Silence,6,Long,6,1,666,4,52,1
633,Silence,2,Short,6,0,553,5,53,0
633,Silence,5,Long,2,1,640,6,54,1
633,Silence,4,Long,5,1,1509,7,55,1
633,Silence,5,Short,4,1,634,8,56,1
633,Silence,3,Long,5,0,1266,9,57,0
633,Silence,1,Long,3,0,653,10,58,0
633,Silence,3,Short,1,0,833,11,59,0
633,Silence,2,Long,3,0,727,12,60,0
633,Silence,1,Long,2,0,630,13,61,0
633,Silence,5,Long,1,1,592,14,62,1
633,Silence,4,Long,5,1,780,15,63,1
633,Silence,5,Short,4,1,693,16,64,1
633,Silence,3,Short,5,0,866,17,65,0
633,Silence,4,Short,3,0,929,18,66,0
633,Silence,2,Short,4,0,644,19,67,0
633,Silence,1,Short,2,0,634,20,68,0
633,Silence,2,Long,1,0,539,21,69,0
633,Silence,3,Long,2,0,762,22,70,0
633,Silence,6,Long,3,1,674,23,71,1
633,Silence,6,Short,6,1,802,24,72,1
634,Music,4,Short,4,1,637,1,1,1
634,Music,6,Short,4,1,599,2,2,1
634,Music,1,Long,6,0,658,3,3,0
634,Music,1,Short,1,0,579,4,4,0
634,Music,6,Long,1,1,619,5,5,1
634,Music,5,Short,6,1,579,6,6,1
634,Music,5,Long,5,1,689,7,7,1
634,Music,2,Long,5,0,534,8,8,0
634,Music,3,Long,2,0,726,9,9,0
634,Music,4,Long,3,1,948,10,10,1
634,Music,3,Short,4,0,618,11,11,0
634,Music,2,Short,3,0,628,12,12,0
634,Music,3,Short,2,0,611,13,13,0
634,Music,4,Long,3,1,660,14,14,1
634,Music,5,Short,4,1,529,15,15,1
634,Music,2,Long,5,0,601,16,16,0
634,Music,6,Long,2,1,574,17,17,1
634,Music,1,Long,6,0,646,18,18,0
634,Music,1,Short,1,0,541,19,19,0
634,Music,2,Short,1,0,471,20,20,0
634,Music,6,Short,2,1,538,21,21,1
634,Music,3,Long,6,0,594,22,22,0
634,Music,5,Long,3,1,572,23,23,1
634,Music,4,Short,5,0,613,24,24,0
634,Silence,4,Short,4,1,1767,1,25,1
634,Silence,3,Long,4,0,877,2,26,0
634,Silence,2,Long,3,0,894,3,27,0
634,Silence,6,Long,2,1,550,4,28,1
634,Silence,3,Short,6,0,1142,5,29,0
634,Silence,5,Short,3,1,559,6,30,1
634,Silence,1,Long,5,0,616,7,31,0
634,Silence,2,Short,1,0,576,8,32,0
634,Silence,6,Short,2,1,564,9,33,1
634,Silence,4,Long,6,1,783,10,34,1
634,Silence,5,Long,4,1,650,11,35,1
634,Silence,1,Short,5,0,574,12,36,0
634,Silence,2,Short,1,0,659,13,37,0
634,Silence,6,Long,2,1,634,14,38,1
634,Silence,5,Short,6,1,610,15,39,1
634,Silence,1,Short,5,0,824,16,40,0
634,Silence,4,Long,1,1,947,17,41,1
634,Silence,2,Long,4,0,676,18,42,0
634,Silence,3,Short,2,0,941,19,43,0
634,Silence,4,Short,3,1,629,20,44,1
634,Silence,3,Long,4,0,708,21,45,0
634,Silence,1,Long,3,0,753,22,46,0
634,Silence,5,Long,1,1,553,23,47,1
634,Silence,6,Short,5,1,698,24,48,1
634,Noise,4,Short,4,1,1320,1,49,1
634,Noise,1,Short,4,0,660,2,50,0
634,Noise,6,Long,1,1,626,3,51,1
634,Noise,6,Short,6,1,528,4,52,1
634,Noise,5,Long,6,1,555,5,53,1
634,Noise,5,Short,5,1,595,6,54,1
634,Noise,2,Short,5,0,523,7,55,0
634,Noise,2,Long,2,0,600,8,56,0
634,Noise,4,Long,2,1,752,9,57,1
634,Noise,3,Short,4,0,1156,10,58,0
634,Noise,3,Long,3,0,686,11,59,0
634,Noise,1,Long,3,0,951,12,60,0
634,Noise,5,Long,1,1,637,13,61,1
634,Noise,2,Short,5,0,850,14,62,0
634,Noise,6,Long,2,1,482,15,63,1
634,Noise,3,Long,6,0,928,16,64,0
634,Noise,2,Long,3,0,1294,17,65,0
634,Noise,3,Short,2,0,656,18,66,0
634,Noise,6,Short,3,1,502,19,67,1
634,Noise,4,Long,6,1,1118,20,68,1
634,Noise,1,Short,4,0,747,21,69,0
634,Noise,5,Short,1,1,443,22,70,1
634,Noise,4,Short,5,1,772,23,71,1
634,Noise,1,Long,4,0,607,24,72,0
635,Silence,4,Short,4,1,1967,1,1,1
635,Silence,2,Long,4,0,912,2,2,0
635,Silence,5,Long,2,1,903,3,3,1
635,Silence,6,Long,5,1,1170,4,4,1
635,Silence,5,Short,6,1,740,5,5,1
635,Silence,3,Long,5,1,1188,6,6,1
635,Silence,1,Long,3,0,785,7,7,0
635,Silence,4,Long,1,1,851,8,8,1
635,Silence,3,Short,4,0,1060,9,9,0
635,Silence,1,Short,3,0,835,10,10,0
635,Silence,2,Short,1,0,963,11,11,0
635,Silence,6,Short,2,1,793,12,12,1
635,Silence,3,Long,6,0,1263,13,13,0
635,Silence,3,Short,3,0,928,14,14,0
635,Silence,4,Short,3,0,1155,15,15,0
635,Silence,6,Short,4,1,880,16,16,1
635,Silence,6,Long,6,1,989,17,17,1
635,Silence,5,Long,6,1,927,18,18,1
635,Silence,4,Long,5,0,1630,19,19,0
635,Silence,5,Short,4,1,1726,20,20,1
635,Silence,1,Short,5,0,835,21,21,0
635,Silence,1,Long,1,0,851,22,22,0
635,Silence,2,Long,1,0,878,23,23,0
635,Silence,2,Short,2,0,1009,24,24,0
635,Noise,4,Short,4,1,1255,1,25,1
635,Noise,6,Long,4,1,872,2,26,1
635,Noise,5,Long,6,1,729,3,27,1
635,Noise,3,Long,5,0,733,4,28,0
635,Noise,2,Short,3,0,890,5,29,0
635,Noise,1,Long,2,0,850,6,30,0
635,Noise,6,Short,1,1,1339,7,31,1
635,Noise,4,Long,6,1,791,8,32,1
635,Noise,3,Short,4,0,742,9,33,0
635,Noise,5,Short,3,1,910,10,34,1
635,Noise,1,Short,5,0,656,11,35,0
635,Noise,2,Long,1,0,1014,12,36,0
635,Noise,1,Long,2,0,868,13,37,0
635,Noise,3,Long,1,1,962,14,38,1
635,Noise,4,Long,3,1,974,15,39,1
635,Noise,1,Short,4,0,726,16,40,0
635,Noise,2,Long,1,0,832,17,41,0
635,Noise,6,Short,2,1,940,18,42,1
635,Noise,5,Short,6,1,786,19,43,1
635,Noise,6,Long,5,1,741,20,44,1
635,Noise,3,Short,6,0,999,21,45,0
635,Noise,4,Short,3,0,1517,22,46,0
635,Noise,2,Short,4,0,895,23,47,0
635,Noise,5,Long,2,1,753,24,48,1
635,Music,4,Short,4,1,842,1,49,1
635,Music,5,Long,4,1,825,2,50,1
635,Music,4,Long,5,1,851,3,51,1
635,Music,2,Short,4,0,619,4,52,0
635,Music,2,Long,2,0,892,5,53,0
635,Music,1,Long,2,0,765,6,54,0
635,Music,6,Short,1,1,761,7,55,1
635,Music,3,Long,6,0,634,8,56,0
635,Music,5,Short,3,1,681,9,57,1
635,Music,1,Short,5,0,595,10,58,0
635,Music,3,Short,1,1,1060,11,59,1
635,Music,6,Long,3,1,851,12,60,1
635,Music,5,Long,6,1,828,13,61,1
635,Music,6,Short,5,1,787,14,62,1
635,Music,3,Short,6,0,676,15,63,0
635,Music,1,Short,3,0,794,16,64,0
635,Music,3,Long,1,0,1316,17,65,0
635,Music,2,Short,3,0,704,18,66,0
635,Music,4,Long,2,1,824,19,67,1
635,Music,2,Long,4,0,740,20,68,0
635,Music,6,Long,2,1,1040,21,69,1
635,Music,1,Long,6,0,797,22,70,0
635,Music,5,Short,1,1,741,23,71,1
635,Music,4,Short,5,1,949,24,72,1
636,Silence,4,Short,4,1,1892,1,1,1
636,Silence,5,Short,4,1,1634,2,2,1
636,Silence,3,Long,5,0,1847,3,3,0
636,Silence,2,Short,3,0,985,4,4,0
636,Silence,6,Short,2,1,699,5,5,1
636,Silence,6,Long,6,1,1503,6,6,1
636,Silence,2,Long,6,0,1115,7,7,0
636,Silence,1,Long,2,0,1127,8,8,0
636,Silence,1,Short,1,0,941,9,9,0
636,Silence,4,Long,1,1,1808,10,10,1
636,Silence,3,Short,4,0,786,11,11,0
636,Silence,5,Long,3,1,1094,12,12,1
636,Silence,1,Long,5,0,920,13,13,0
636,Silence,2,Short,1,0,703,14,14,0
636,Silence,4,Short,2,0,882,15,15,0
636,Silence,4,Long,4,0,1071,16,16,0
636,Silence,3,Long,4,0,767,17,17,0
636,Silence,1,Short,3,0,614,18,18,0
636,Silence,2,Long,1,0,493,19,19,0
636,Silence,3,Short,2,0,714,20,20,0
636,Silence,6,Short,3,1,859,21,21,1
636,Silence,5,Short,6,1,1537,22,22,1
636,Silence,6,Long,5,1,997,23,23,1
636,Silence,5,Long,6,0,1552,24,24,0
636,Music,4,Short,4,1,527,1,25,1
636,Music,6,Long,4,1,828,2,26,1
636,Music,4,Long,6,0,978,3,27,0
636,Music,2,Long,4,0,1080,4,28,0
636,Music,2,Short,2,0,694,5,29,0
636,Music,1,Long,2,0,762,6,30,0
636,Music,3,Long,1,0,810,7,31,0
636,Music,1,Short,3,0,578,8,32,0
636,Music,6,Short,1,1,629,9,33,1
636,Music,3,Short,6,0,738,10,34,0
636,Music,5,Long,3,1,778,11,35,1
636,Music,5,Short,5,1,1551,12,36,1
636,Music,6,Long,5,1,1005,13,37,1
636,Music,6,Short,6,1,727,14,38,1
636,Music,1,Short,6,0,661,15,39,0
636,Music,3,Short,1,0,603,16,40,0
636,Music,2,Long,3,0,772,17,41,0
636,Music,4,Long,2,0,668,18,42,0
636,Music,2,Short,4,0,527,19,43,0
636,Music,3,Long,2,0,723,20,44,0
636,Music,4,Short,3,0,668,21,45,0
636,Music,1,Long,4,0,698,22,46,0
636,Music,5,Short,1,0,1326,23,47,0
636,Music,5,Long,5,1,1797,24,48,1
636,Noise,4,Short,4,0,596,1,49,0
636,Noise,2,Long,4,0,511,2,50,0
636,Noise,5,Short,2,1,669,3,51,1
636,Noise,6,Short,5,1,586,4,52,1
636,Noise,3,Long,6,0,501,5,53,0
636,Noise,1,Short,3,0,535,6,54,0
636,Noise,5,Long,1,1,791,7,55,1
636,Noise,2,Short,5,0,614,8,56,0
636,Noise,3,Short,2,0,1073,9,57,0
636,Noise,6,Long,3,1,785,10,58,1
636,Noise,1,Long,6,0,495,11,59,0
636,Noise,4,Long,1,0,1138,12,60,0
636,Noise,3,Long,4,0,618,13,61,0
636,Noise,5,Long,3,1,1017,14,62,1
636,Noise,1,Short,5,0,576,15,63,0
636,Noise,3,Short,1,0,528,16,64,0
636,Noise,6,Short,3,1,647,17,65,1
636,Noise,1,Long,6,0,964,18,66,0
636,Noise,4,Short,1,0,990,19,67,0
636,Noise,4,Long,4,0,1001,20,68,0
636,Noise,6,Long,4,1,550,21,69,1
636,Noise,5,Short,6,0,1065,22,70,0
636,Noise,2,Long,5,0,551,23,71,0
636,Noise,2,Short,2,0,591,24,72,0
637,Noise,4,Short,4,1,694,1,1,1
637,Noise,2,Long,4,0,654,2,2,0
637,Noise,1,Short,2,0,581,3,3,0
637,Noise,2,Short,1,0,510,4,4,0
637,Noise,3,Long,2,1,921,5,5,1
637,Noise,1,Long,3,0,939,6,6,0
637,Noise,6,Short,1,1,512,7,7,1
637,Noise,3,Short,6,0,616,8,8,0
637,Noise,5,Short,3,1,682,9,9,1
637,Noise,4,Long,5,1,545,10,10,1
637,Noise,5,Long,4,1,544,11,11,1
637,Noise,6,Long,5,1,572,12,12,1
637,Noise,5,Long,6,1,507,13,13,1
637,Noise,6,Long,5,1,557,14,14,1
637,Noise,2,Short,6,0,519,15,15,0
637,Noise,6,Short,2,1,574,16,16,1
637,Noise,3,Short,6,0,565,17,17,0
637,Noise,2,Long,3,0,617,18,18,0
637,Noise,3,Long,2,0,687,19,19,0
637,Noise,4,Short,3,1,793,20,20,1
637,Noise,1,Short,4,0,545,21,21,0
637,Noise,1,Long,1,0,617,22,22,0
637,Noise,4,Long,1,1,525,23,23,1
637,Noise,5,Short,4,1,506,24,24,1
637,Music,4,Short,4,1,582,1,25,1
637,Music,4,Long,4,1,564,2,26,1
637,Music,5,Long,4,1,653,3,27,1
637,Music,5,Short,5,1,456,4,28,1
637,Music,2,Short,5,0,434,5,29,0
637,Music,1,Long,2,0,480,6,30,0
637,Music,1,Short,1,0,405,7,31,0
637,Music,6,Short,1,1,449,8,32,1
637,Music,2,Long,6,0,301,9,33,0
637,Music,3,Long,2,0,385,10,34,0
637,Music,6,Long,3,1,443,11,35,1
637,Music,3,Short,6,0,580,12,36,0
637,Music,1,Long,3,0,615,13,37,0
637,Music,6,Long,1,1,544,14,38,1
637,Music,3,Long,6,0,537,15,39,0
637,Music,5,Long,3,1,624,16,40,1
637,Music,3,Short,5,0,536,17,41,0
637,Music,4,Long,3,1,547,18,42,1
637,Music,6,Short,4,1,504,19,43,1
637,Music,2,Long,6,0,377,20,44,0
637,Music,2,Short,2,0,539,21,45,0
637,Music,5,Short,2,1,629,22,46,1
637,Music,1,Short,5,0,523,23,47,0
637,Music,4,Short,1,0,791,24,48,0
637,Silence,4,Short,4,1,826,1,49,1
637,Silence,5,Short,4,1,461,2,50,1
637,Silence,3,Long,5,1,795,3,51,1
637,Silence,1,Short,3,0,527,4,52,0
637,Silence,6,Long,1,1,627,5,53,1
637,Silence,6,Short,6,1,538,6,54,1
637,Silence,2,Short,6,0,577,7,55,0
637,Silence,1,Long,2,0,521,8,56,0
637,Silence,2,Long,1,0,547,9,57,0
637,Silence,3,Short,2,1,616,10,58,1
637,Silence,5,Long,3,1,621,11,59,1
637,Silence,4,Long,5,1,760,12,60,1
637,Silence,6,Long,4,1,614,13,61,1
637,Silence,2,Short,6,0,471,14,62,0
637,Silence,4,Short,2,1,601,15,63,1
637,Silence,5,Short,4,1,517,16,64,1
637,Silence,6,Short,5,1,521,17,65,1
637,Silence,1,Long,6,0,542,18,66,0
637,Silence,4,Long,1,1,585,19,67,1
637,Silence,3,Long,4,1,681,20,68,1
637,Silence,3,Short,3,1,507,21,69,1
637,Silence,5,Long,3,1,570,22,70,1
637,Silence,2,Long,5,0,531,23,71,0
637,Silence,1,Short,2,0,489,24,72,0